gps_time,ax,ay,az,roll_rate,pitch_rate,yaw_rate,roll,pitch,yaw
1429364549.29897,-0.151149643157376,0.203858237839583,-9.68645651738942,0.00177809351589531,0.000281533284578472,0.00269451644271612,-1.98687652535468,0.0180619760143818,-3.12218116793147
1429364549.31897,-0.114840294147516,0.180327377588488,-9.670763858217,-3.38985410053283e-05,0.00129909673705697,0.00151578267104924,-1.98687868829837,0.0179925421772828,-3.12218215725265
1429364549.32897,-0.132356844278844,0.167361659161933,-9.8974052066803,0.00101544242352247,-0.00180963519960642,0.00096020771889016,-1.98687231633047,0.0180016622434609,-3.12219314522839
1429364549.34397,-0.0727033075632527,0.186367936394364,-9.69704922307432,0.000432035361882299,-0.00161018362268806,0.00164546491578221,-1.98684215346959,0.0179946790174581,-3.12219613872823
1429364549.34897,-0.145818940520752,0.162670998861361,-9.82639865656495,0.000869200506713241,-0.00130721752066165,0.000820945424493402,-1.98685008787257,0.0179846733419166,-3.12221118127227
1429364549.35897,-0.127282728485484,0.15004235776891,-9.82300492247343,-0.000189280006452464,-0.00271514663472772,0.00157842203043401,-1.98684431799439,0.0180005927152467,-3.12223028656799
1429364549.37397,-0.185213870988414,0.150893540371303,-9.77000164656043,-0.000711203145328909,-0.00335625931620598,0.00146413512993604,-1.9868697132117,0.0180448668952285,-3.12224077726244
1429364549.37897,-0.150919387198612,0.143288125135191,-9.9220591709435,-0.000694527465384454,-0.00191458174958825,-0.000110719389340375,-1.98691144294749,0.018061613149227,-3.12225838326123
1429364549.38897,-0.151177873738017,0.14899327797424,-9.70447732724845,-0.000246190902544186,0.000936765340156853,0.00110952113755047,-1.98691123352812,0.0180435246658399,-3.1222600794858
1429364549.40897,-0.110335758403037,0.138163384266291,-9.67675520758629,-0.00165664521045983,-0.00120929314289242,0.00165440153796226,-1.98693886050235,0.0180153499506275,-3.12227621075032
1429364549.41897,-0.142297826323053,0.135686600622907,-9.90334278003573,-0.00127619120758027,-0.00249828700907528,0.0013472578721121,-1.98694619999112,0.018025103441275,-3.12227531013672
1429364549.43397,-0.0800578167782165,0.174291202696785,-9.70428911119997,-0.00129841279704124,-0.000233150582062081,0.00213788379915059,-1.98691750870281,0.0179857586884122,-3.12225659104911
1429364549.43897,-0.151188121137395,0.160058660938498,-9.82724738234877,-0.000507246935740113,0.000629442976787686,0.00115827471017838,-1.9869301342949,0.0179648230771249,-3.12226305399864
1429364549.44897,-0.120832547699101,0.151158474917803,-9.81846552547812,-0.000185653319931589,-0.00172654935158789,0.00179971416946501,-1.98692875901979,0.017966399633058,-3.12228856012278
1429364549.46397,-0.194162955918442,0.154625365577079,-9.77692939999699,-0.00107566057704389,-0.0033627396915108,0.0019725919701159,-1.98695324182144,0.0180111071515733,-3.12229353365341
1429364549.46897,-0.163142032172903,0.150904701086134,-9.9135800964117,-0.00112213171087205,-0.00334974052384496,0.00179228384513408,-1.9869506224277,0.018043741385445,-3.12230181338344
1429364549.47897,-0.168329791808035,0.149211596900038,-9.69556103034317,-0.00155362114310265,0.000500905560329556,0.00162150419782847,-1.9869699219353,0.018034730719171,-3.12229800011771
1429364549.49397,-0.179141638402641,0.111156573266629,-9.95262966577411,-0.000494463951326907,0.00232780398800969,0.000732989690732211,-1.98699413283229,0.0180109474672193,-3.12231031173819
1429364549.49897,-0.115859709456284,0.139491975122085,-9.67321300493479,-0.00160500744823366,5.23558446730021e-05,0.00146779778879136,-1.98699244326123,0.0179927697537943,-3.12230911330645
1429364549.50897,-0.156489186687581,0.132476525135757,-9.89791724785566,-0.00182645895984024,-0.00385695276781917,0.000521191512234509,-1.98701225543055,0.0180234496489787,-3.12230539992056
1429364549.52397,-0.098653631779924,0.161632248664461,-9.70515186550915,0.000220959351281635,-0.00297416979447007,0.000530981458723545,-1.98699849999588,0.0180370027024208,-3.12232365043543
1429364549.52897,-0.163937840459403,0.131789063461404,-9.82179846929312,-0.00104631891008466,-0.000113452435471117,0.00102681166026741,-1.98701722515043,0.0180269599081503,-3.12233260764178
1429364549.53897,-0.142469611826539,0.129333651399612,-9.81271266103983,-0.00112191797234118,-0.00123533245641738,0.00202448107302189,-1.98702607353216,0.0180319526222098,-3.12234370953173
1429364549.55397,-0.183111236153357,0.140308068144787,-9.76808616832793,-0.00219620740972459,-0.00250248494558036,0.00338616757653654,-1.98703585582114,0.018066550427676,-3.12232819770665
1429364549.55897,-0.175135928158928,0.146120736478921,-9.91865725354552,-0.00377203617244959,-0.00253503140993416,0.0014656112762168,-1.98705579614657,0.018095962213324,-3.12231519689809
1429364549.56897,-0.159945190626662,0.152602106988011,-9.6926518648982,-0.00187235069461167,-0.000598972954321653,0.00260103982873261,-1.9870612601481,0.0180977691302832,-3.12231063498959
1429364549.58397,-0.185380477993283,0.128145053536398,-9.9543925837934,-0.00209252256900072,0.000270482618361712,0.00262057781219482,-1.9870860857163,0.0180947494470332,-3.12230640271652
1429364549.58897,-0.136343731091078,0.162638594429102,-9.68003262182176,-0.00146409741137177,0.000612902396824211,0.00252424017526209,-1.98707848105011,0.0180708245615119,-3.1223032159346
1429364549.59897,-0.150233998750336,0.160808785186056,-9.90185108017325,-0.00269485078752041,-0.00228117499500513,0.000806978554464877,-1.98710022445943,0.018092840647945,-3.12226954141247
1429364549.61397,-0.0965455718510784,0.203097482600156,-9.7002296066761,0.000314767734380439,-0.000575143145397305,0.0013085724785924,-1.98707596371116,0.0180692468460592,-3.12224920991708
1429364549.61897,-0.144641192845115,0.186745793263428,-9.83167688922882,-0.000859551306348294,-0.000249997799983248,0.00114016758743674,-1.98707981666507,0.0180562981383441,-3.12224468707935
1429364549.62897,-0.125284869199153,0.183034353258554,-9.81282956541777,-0.00120722979772836,-0.00290078320540488,0.00203711027279496,-1.98705541204214,0.0180715140051832,-3.12223118622816
1429364549.64397,-0.163366378980689,0.193723340658471,-9.76339128850996,-0.0023028701543808,-0.00350240687839687,0.0038843487855047,-1.9870408657735,0.0180961364773723,-3.12220264002392
1429364549.64897,-0.15094652180071,0.198227575008851,-9.91081296978593,-0.00140369893051684,-0.00285956962034106,0.00239060143940151,-1.98704296327664,0.0181325192171168,-3.12219895252831
1429364549.65897,-0.139710641107755,0.203935412995331,-9.70042132985592,0.00110674952156842,8.25064198579639e-05,0.001145702553913,-1.98703929975145,0.0181038144135933,-3.1222057244324
1429364549.67397,-0.159001443503145,0.168011318709701,-9.95415877503753,0.000742203090339899,0.00111415633000433,0.0013302955776453,-1.98703924023245,0.0180825368093635,-3.12221333016749
1429364549.67897,-0.118578037637426,0.189142059016507,-9.67385480996966,-0.000590206938795745,-0.00166796729899943,0.00127848144620657,-1.98701820707044,0.0180729290388603,-3.1222028285208
1429364549.68897,-0.142382408467121,0.173007099436689,-9.92217023010254,-0.000487689598230645,-0.00131563097238541,0.00251145055517554,-1.98700295731274,0.0180840157183266,-3.12218810643139
1429364549.70397,-0.0914758034392726,0.199672092995048,-9.68234031424224,-0.000433778448496014,-0.00282264873385429,0.00300272437743843,-1.98697134317146,0.0180779049708496,-3.12218132153585
1429364549.70897,-0.136715139953047,0.172713121458795,-9.85128993671536,-7.86731616244651e-05,0.00115792895667255,0.00223883334547281,-1.98695482339567,0.0180425633321543,-3.12218573771396
1429364549.71897,-0.11496592982118,0.175507154357806,-9.80040555265248,-0.000405028375098482,-0.000242208188865334,0.00212339800782502,-1.98694654527069,0.0180301521571555,-3.12219326546066
1429364549.73397,-0.15573623116212,0.174029464754369,-9.78790789012909,-0.00213014683686197,-0.00340012740343809,0.00123881280887872,-1.98696979191106,0.0180593004451899,-3.12218765030176
1429364549.73897,-0.137598781786626,0.173791838339902,-9.89510102139115,-0.00124938774388283,-0.00297597702592611,0.00219833292067051,-1.9869615077239,0.0180841129316219,-3.12219743341924
1429364549.74897,-0.15035858411123,0.172396949915402,-9.71609002363086,-0.00124316744040698,-0.000535592902451754,0.00123351207002997,-1.98696511817596,0.0180753663435243,-3.12218880780122
1429364549.76397,-0.157155413777661,0.137695437960979,-9.9493540051043,0.000898103986401111,0.000671116868034005,0.00174378382507712,-1.98697796666604,0.0180523077632032,-3.12221422339406
1429364549.76897,-0.133236613654904,0.164437679740321,-9.68040730035305,-5.03486880916171e-05,-0.000354935007635504,0.00126647530123591,-1.98697062429033,0.0180350206293003,-3.12221775329398
1429364549.77897,-0.152371339572594,0.150650698925601,-9.92032430997491,-0.000636115146335214,-0.00343899382278323,0.00151940423529595,-1.98696924407313,0.0180714891514076,-3.12222084508158
1429364549.79397,-0.106188265068457,0.186058340722229,-9.7006662445277,-0.000579997315071523,-0.00309210154227912,-0.000106036801298615,-1.98695949363386,0.0180857236175206,-3.12221075258542
1429364549.79897,-0.165233743755147,0.163092000752408,-9.84101871806979,-0.000928233203012496,0.0012671195436269,0.0010262131690979,-1.98697195379898,0.0180596049764797,-3.12221151403949
1429364549.80897,-0.132475173428887,0.162162884942442,-9.80883260473609,6.7622990172822e-05,-0.00104997656308115,0.00258466880768538,-1.98696217778617,0.018061519023146,-3.12223346643608
1429364549.82397,-0.181148831772897,0.168798907157127,-9.78083342169821,-0.00183324364479631,-0.000805695308372378,0.00244981702417135,-1.98698957888918,0.0180707965186783,-3.12221989821117
1429364549.82897,-0.148114896837668,0.161399554153439,-9.90208839606047,-0.00147920160088688,-0.00312389107421041,0.0020242475438863,-1.9869828672922,0.0181021347332729,-3.1222204022937
1429364549.83897,-0.15612959612757,0.156722831046674,-9.70336322852671,9.63522979873233e-05,0.000507781689520925,0.00269577489234507,-1.98698604419577,0.0180850618256442,-3.12223560308499
1429364549.85397,-0.178816680764593,0.115905064701661,-9.93333576723933,0.00058129127137363,-0.00170754920691252,0.00202709250152111,-1.9870040965821,0.0180914265658212,-3.12226060483103
1429364549.85897,-0.137193698983919,0.140388960494427,-9.70210066124499,-0.00166237540543079,-0.00166769372299314,0.00285612628795207,-1.98699107014746,0.0181018007345706,-3.1222461091023
1429364549.86897,-0.170269052774925,0.126964949506894,-9.86726959613562,-0.00119627104140818,-0.0026221121661365,0.000143020544783212,-1.98701467699748,0.0181296950449731,-3.12225345244496
1429364549.88397,-0.125402906088252,0.157526548644993,-9.75028046252429,0.000152640888700262,-0.00198068632744253,0.00125297566410154,-1.98701094450148,0.0181403373291877,-3.12225775865889
1429364549.88897,-0.166657200687006,0.135511061392911,-9.77895535286665,0.00123019295278937,-0.000682660320308059,0.00155755563173443,-1.98702034125728,0.0181277588587863,-3.12228186779085
1429364549.89897,-0.155471406213474,0.118787004212989,-9.85180548502207,0.000669260451104492,-0.00133459456264973,0.00116700399667025,-1.98703823878045,0.0181446127071521,-3.12231188656916
1429364549.91397,-0.178069004202448,0.137250141878892,-9.72394775139391,-0.00192027527373284,-0.00203093374148011,0.00234651053324342,-1.98704787160069,0.0181677401891624,-3.1223080468279
1429364549.91897,-0.17716306833867,0.136014042478986,-9.92554292140603,-0.00186550139915198,-0.00177211291156709,0.000875160854775459,-1.98708982949942,0.0181788441415784,-3.1223044610736
1429364549.92897,-0.132871451870631,0.163573683322128,-9.69779682657123,-0.00114817661233246,0.000494012900162488,0.00157695764210075,-1.98708896658739,0.0181511724424986,-3.12230439179098
1429364549.94397,-0.158637889154069,0.122161366883758,-9.89785762662292,-0.00138491299003363,0.000257781066466123,0.0013842802727595,-1.98710258883607,0.0181292622471277,-3.12231775209657
1429364549.94897,-0.109934520658385,0.151441337846639,-9.76842577554583,-0.00176898145582527,-0.00258016539737582,0.0034043462947011,-1.98707730686029,0.0181318309744943,-3.12231471973764
1429364549.95897,-0.124774700320465,0.137030964436568,-9.78123148110509,-0.00176434218883514,-0.00134695647284389,0.00127091270405799,-1.98708359070892,0.0181258383466129,-3.12230850012932
1429364549.97897,-0.130421337038465,0.17071862317333,-9.6772076275289,-0.00140073872171342,0.000629881280474365,0.00156242097727954,-1.98706758870524,0.01810108977852,-3.12228230276129
1429364549.98897,-0.144540773811098,0.151567484976957,-9.9575267901659,-0.000932127004489303,-0.0016527222469449,0.00154468615073711,-1.98708011259068,0.0181032964604053,-3.12228731096659
1429364550.00397,-0.151794937057281,0.187721086302679,-9.65338251530528,-0.00140504771843553,-0.00231153168715537,0.00220812391489744,-1.9870687680762,0.0181264434568934,-3.12227127511611
1429364550.00897,-0.169824615209363,0.166997063633241,-9.9959135117054,-0.000901523162610829,-0.00248128990642726,0.00201191147789359,-1.98708970539256,0.0181458895155271,-3.1222777756082
1429364550.01897,-0.141187947118701,0.191910135490354,-9.68658043603003,0.000347738270647824,-0.000292710319627076,0.00261383457109332,-1.9870736374415,0.0181404709550971,-3.12226874732615
1429364550.03397,-0.1529028343671,0.143651067562914,-9.92022494125366,-0.000462922180304304,0.000616017554420978,0.00128991191741079,-1.98709355157607,0.018107001859395,-3.12228182040464
1429364550.03897,-0.11900593506014,0.167839706736151,-9.77363269653916,-0.00148485985118896,-0.0010726114269346,0.00120584876276553,-1.98708834784582,0.0181028101560174,-3.12227228975229
1429364550.04897,-0.129080023698416,0.165037801057938,-9.78691829456985,-0.00196452508680522,-0.0024127452634275,0.00169437506701797,-1.98706468367245,0.0181036935550804,-3.1222523982031
1429364550.06397,-0.0920202033811249,0.179654665958695,-9.85353099364042,-0.00030026090098545,-0.00333962077274919,0.000886427762452513,-1.98705138977693,0.018111915437903,-3.12225739169315
1429364550.06897,-0.117377100882446,0.184500973478705,-9.6667511154443,0.00103402021341026,3.75769741367549e-06,0.00230560265481472,-1.98702978773676,0.0180766463897851,-3.12225934625891
1429364550.07897,-0.142483649485046,0.160219166996144,-9.96731870086193,-0.00111558462958783,-0.0010717527475208,0.00162958109285682,-1.98703759289291,0.0180742532774439,-3.12226433853262
1429364550.09397,-0.155827635772619,0.194179706123844,-9.64243383578956,-0.00192186539061368,-0.00352157629095018,0.00329016312025487,-1.98703402983336,0.0181089160353428,-3.12224679863416
1429364550.09897,-0.174850973737706,0.171756734049413,-9.99802480477095,-0.00115475698839873,-0.00303065264597535,0.00173062470275909,-1.98704130884875,0.0181432002953146,-3.12224338610435
1429364550.10897,-0.161695230898075,0.196306580351014,-9.66782546667755,0.00123003381304443,-0.000559566484298557,0.00145599921233952,-1.9870500137025,0.018137756299121,-3.12224951865916
1429364550.12397,-0.190908794694394,0.149420864869701,-9.9531288474679,-0.00079790479503572,0.00157799920998514,0.0025342961307615,-1.98706186053801,0.0181198900886554,-3.12224991788733
1429364550.12897,-0.149404626120953,0.165751447486319,-9.72891560293436,-0.00180562562309206,-0.000185308730578981,0.00197918293997645,-1.98705814632566,0.0181138358624887,-3.12222739175535
1429364550.13897,-0.16642516376311,0.168236980691738,-9.83157167528868,-0.0019908188842237,-0.00174665939994156,0.000991176348179579,-1.98708182211883,0.0181339337278156,-3.12220815956653
1429364550.15397,-0.11027004535622,0.190137609392498,-9.80010510840118,-0.000155630696099252,-0.00457162410020828,0.00219955830834806,-1.98706605692508,0.0181693681025559,-3.12221389246671
1429364550.15897,-0.126613259125547,0.180637722179294,-9.70351637326181,0.000775486696511507,0.00137191964313388,0.00248919846490026,-1.98703793123523,0.0181205100988486,-3.1222148648807
1429364550.16897,-0.127249182408908,0.160438106976449,-9.91554175187349,-0.00036717695184052,-0.000780079339165241,0.0011022575199604,-1.98705031322374,0.0181180141574087,-3.12222123956406
1429364550.18397,-0.146884359528869,0.176456216977257,-9.66060895942748,-0.00255362573079765,-0.00451568327844143,0.00180039706174284,-1.98704681458151,0.0181531973817012,-3.12220430971597
1429364550.18897,-0.15318735953006,0.158559855481796,-9.99278515055179,3.83999868063256e-05,-0.0037346703466028,0.0016938695916906,-1.9870504359696,0.0181882014825869,-3.12221777974447
1429364550.19897,-0.141456206133449,0.170850597256236,-9.63609761850536,9.14626361918636e-05,-0.00139554392080754,0.000530808756593615,-1.98705205824975,0.0181829772185811,-3.12221968386333
1429364550.21397,-0.170699699277151,0.136411727426527,-9.99344916741848,-0.000179699971340597,0.00221261568367481,0.0016887376550585,-1.98706979547641,0.0181454667355996,-3.12222910326263
1429364550.21897,-0.133218210348533,0.156393544293381,-9.67241162542403,-0.00141869822982699,-0.00226644426584244,0.000733068969566375,-1.98707158479847,0.018151087486502,-3.12222079857523
1429364550.22897,-0.156634001985751,0.15967914183531,-9.89921137931943,-0.00121783011127263,-0.00213176640681922,0.00128133338876069,-1.98707130543529,0.0181662500864477,-3.12222053697263
1429364550.24397,-0.122567755727563,0.181397600635886,-9.73215210063755,-0.000414459558669478,-0.00281310919672251,0.00268858252093196,-1.98705974006063,0.0181876846622532,-3.12221864054651
1429364550.24897,-0.151135797295114,0.166703925905563,-9.79486662322581,0.00106279365718365,0.000596477068029344,0.00354632525704801,-1.98704430490613,0.0181670354073752,-3.12224153902363
1429364550.25897,-0.147782322148746,0.137080941058137,-9.83985201237798,-0.000859062012750655,0.000249999924562871,0.00260910345241427,-1.98704457360815,0.0181536893694573,-3.12224257980058
1429364550.27397,-0.156471249172091,0.149868316376256,-9.74055694088936,-0.000193740837858059,-0.00281325401738286,0.0032882655505091,-1.98702994975845,0.0181699542444965,-3.12225167340368
1429364550.27897,-0.154684913744591,0.133157337873615,-9.92256185976863,-0.000638195080682635,-0.00367665966041386,0.000908357731532305,-1.98706821846119,0.0181942845154783,-3.12225660505997
1429364550.28897,-0.128816842717584,0.147556778897718,-9.70709130913913,-0.0016817917348817,-0.000262580346316099,0.00161601614672691,-1.98705766451832,0.0181777044156356,-3.12224191617233
1429364550.30897,-0.131436861623405,0.145535383472173,-9.74147990095317,-0.00198384490795434,-8.66063055582345e-05,0.00232819514349103,-1.98704889853837,0.0181250195597472,-3.12224798140575
1429364550.31897,-0.134800657234387,0.153996639219485,-9.83779683341384,-0.00219285162165761,-0.00120920001063496,0.00179374869912863,-1.9870454715974,0.0181270196206384,-3.12222936133198
1429364550.33397,-0.122738792312378,0.184518965793122,-9.79013550305068,-0.000917691679205745,-0.00113665161188692,0.00111512851435691,-1.98704456658746,0.0181349898728579,-3.12223287011146
1429364550.33897,-0.141748174817348,0.177152820939291,-9.75493208772242,-0.00107119185850024,-0.000365846382919699,0.00152547075413167,-1.98704326717107,0.0181237489838941,-3.12223079028156
1429364550.34897,-0.165824092597421,0.139098664955562,-9.8698379853189,0.00124216522090137,-0.00158542883582413,0.0019816062413156,-1.9870683388771,0.0181411834225984,-3.12226117501112
1429364550.36397,-0.174039346827567,0.158056399471685,-9.74508347840309,-0.00141013495158404,-0.00306813232600689,0.00188228953629732,-1.98707045770417,0.0181653856038588,-3.12224676156151
1429364550.36897,-0.175987448688038,0.140228500102553,-9.88845968368053,-0.000548620417248458,-0.00182499294169247,0.00162022619042546,-1.98708976564264,0.0181880312225121,-3.12224842656362
1429364550.37897,-0.140638478276087,0.169297833122592,-9.77965677913427,-0.000942600483540446,0.00149110588245094,0.00176110910251737,-1.98708957622499,0.0181621140518879,-3.1222401306998
1429364550.39397,-0.147343200079119,0.132908870404726,-9.82241338632107,-0.00139414193108678,0.00202290201559663,0.000868863833602518,-1.98709895394251,0.0181186158743745,-3.1222401416352
1429364550.39897,-0.127020040694997,0.156275635268446,-9.8591318823874,-0.00201492803171277,-8.77086422406137e-05,0.00225372053682804,-1.98708695259017,0.0181135573192469,-3.12223128948568
1429364550.40897,-0.132066610894306,0.173974373566266,-9.71344740016758,-0.0014413456665352,-0.00218048738315701,0.0014009727165103,-1.98708828142598,0.0181212988707663,-3.12220698135552
1429364550.42897,-0.127579044550937,0.198827093538269,-9.63000163971782,0.000176424422534183,0.00146951084025204,0.0016312887892127,-1.98708633333267,0.0181114616392513,-3.12220428499755
1429364550.43897,-0.163027812942397,0.159808339439239,-9.97486020228267,0.000627814559265971,0.000310722272843122,0.00123851746320724,-1.98710594133865,0.0181052037101126,-3.12222693715644
1429364550.45397,-0.149767486350285,0.187878249625768,-9.66225438854694,-0.00290211383253336,-0.000914067029953003,0.00291662034578621,-1.98709880240302,0.0181067553487439,-3.1221958450381
1429364550.45897,-0.171415976054035,0.155177172507253,-9.96240871698856,-0.00178716972004622,-0.00185003795195371,0.000298816681606695,-1.98714475900926,0.018136320277667,-3.12219337550074
1429364550.46897,-0.146147414423292,0.178179113513418,-9.71614087703526,-0.0006421142606996,0.000899792416021228,0.00172890396788716,-1.98714424075645,0.01811890748969,-3.1221870267932
1429364550.48397,-0.158035630678292,0.145882379412092,-9.8675256167233,-0.000659068988170475,0.00346120097674429,0.00181087909732014,-1.98715834306062,0.018069745589,-3.1221876384933
1429364550.48897,-0.13618364515854,0.168903025118727,-9.82262264515757,-0.00147978833410889,-5.49742253497243e-07,0.00241763098165393,-1.98715600226725,0.0180669945284432,-3.12218558740777
1429364550.49897,-0.125787466692738,0.184483255158924,-9.733538002038,-0.0016545212129131,-0.00176901533268392,0.00239858590066433,-1.98713060446121,0.0180683827821248,-3.12216461821665
1429364550.51397,-0.121442715486698,0.189658155312482,-9.89939375014901,-0.000970655411947519,-0.00265922979451716,0.00133215042296797,-1.98713202473391,0.0180781413491555,-3.1221564178989
1429364550.51897,-0.113376496072114,0.207137332575489,-9.62948492236733,-5.07042459503282e-05,-5.84077788516879e-05,0.00223756255581975,-1.9871021180223,0.0180539753592735,-3.12215099267609
1429364550.52897,-0.147359557558876,0.160627473802399,-9.9717353482604,0.000150307969306596,0.000225963245611638,0.000737027090508491,-1.98713110914966,0.0180420920148639,-3.12217061681636
1429364550.54397,-0.148526071454445,0.177086368106958,-9.63161550465524,-0.00158829602878541,-0.00113294878974557,0.000930522452108562,-1.98713221103004,0.0180429398697251,-3.12215794659252
1429364550.54897,-0.161660561443493,0.143675772745907,-9.98474446743727,-0.00187153555452824,-0.00298438360914588,0.00110460387077183,-1.98714148944234,0.0180821565535674,-3.12214676916346
1429364550.55897,-0.143930606023502,0.179078930163663,-9.68659855620861,-0.00132094393484294,-0.000619932485278696,0.00145059719216079,-1.98714028489466,0.0180763102270249,-3.12212777054377
1429364550.57397,-0.168681089463737,0.155633994630352,-9.91298622217178,0.000355652853613719,-0.000684998696669936,0.00268895900808275,-1.98713369902931,0.0180692434286844,-3.12213800702422
1429364550.57897,-0.154841419480555,0.168174765643105,-9.77845500212908,-0.000751822779420763,-0.000610500224865973,-0.000564325368031859,-1.98717512716772,0.0180731588990626,-3.12214167386522
1429364550.58897,-0.147745643400168,0.171021990034077,-9.78871511485875,-0.0021989531815052,-0.00157387275248766,0.000909867696464062,-1.9871835705349,0.0180771462418043,-3.12212130491871
1429364550.60397,-0.1343206551651,0.18296424716441,-9.84163246605396,-0.000615877215750515,-0.00321970786899328,0.00211548828519881,-1.98717002480644,0.0180952410082946,-3.12212738592184
1429364550.60897,-0.113916877425974,0.192133094058651,-9.68604326041341,-0.000110554581624456,0.00127910566516221,0.00132885843049735,-1.98714487112274,0.018055457295239,-3.1221338387153
1429364550.61897,-0.14785454713474,0.150990233078273,-9.92024130786657,-0.00124165858142078,-0.00234384485520422,0.000292669166810811,-1.98716444975539,0.0180726417181446,-3.12214147472746
1429364550.63397,-0.145784161468316,0.16177514600018,-9.68413596548736,-0.00223923218436539,-0.00101400492712855,0.00130361679475754,-1.98717139655825,0.0180711844243088,-3.12213268976546
1429364550.63897,-0.17278629629286,0.131679502139706,-9.94623382725716,-0.00306887226179242,-0.00431108102202415,0.00186046271119267,-1.98718772764848,0.0181221472151112,-3.12212433420381
1429364550.64897,-0.146942820850993,0.160560399915557,-9.72957319006026,-0.00183365913107991,0.000891643285285681,0.00230591977015138,-1.98717785500295,0.0181047599831307,-3.12211096772241
1429364550.66397,-0.159964351984859,0.135729709112272,-9.87786697799563,-0.000362114486051723,0.00250817113555968,0.00125469290651381,-1.98719938010955,0.0180715945017112,-3.12213422592706
1429364550.66897,-0.148401084234752,0.151941295858566,-9.81095091206431,-0.0001662906142883,-0.000151387328514829,0.00198862492106855,-1.98721626603817,0.0180705320059607,-3.12214279683144
1429364550.67897,-0.137422301841713,0.161452544716001,-9.76719360340238,0.000273077806923538,-0.00204671849496663,0.00386758823879063,-1.98718203317311,0.0180768913848553,-3.12214887199793
1429364550.69397,-0.135185546632437,0.172480025088973,-9.86286230108738,0.000523901777341962,-0.00301426742225885,0.00212365528568625,-1.98717868469933,0.0181073393778362,-3.12215842061472
1429364550.69897,-0.117675161380414,0.181256420333218,-9.66736427890658,-0.000437705661170185,0.000377663818653673,0.00222538667730987,-1.98716378281511,0.0180720098903522,-3.12215877924099
1429364550.70897,-0.150277527364809,0.137037339378428,-9.94206151000857,0.000979855307377875,-0.00112877192441374,0.0022499025799334,-1.98718475148397,0.0180763187038587,-3.1221896344523
1429364550.72897,-0.153109709450277,0.120542159050936,-9.95908044934869,-0.00244804611429572,-0.00339212408289313,0.00196679844520986,-1.98719133978049,0.0181115194351166,-3.12217671121948
1429364550.73897,-0.13186001893892,0.154201459342893,-9.72179320370853,-0.0016333032399416,-0.00163332442753017,0.00293159764260054,-1.98717355838549,0.0181021762963247,-3.12217125898876
1429364550.75897,-0.152252681628987,0.145827306490298,-9.80536171375513,-0.00189592933747917,0.00156215578317642,0.002035076264292,-1.9871923051683,0.0180641644000918,-3.12218561925851
1429364550.76897,-0.138209415365104,0.163499850900937,-9.7669597946465,-0.00256275804713368,-0.00103341054636985,0.00114566832780838,-1.9871901789012,0.0180615347240603,-3.12216320176655
1429364550.78397,-0.129600102049764,0.169269173283689,-9.86338486365676,-0.000844382564537227,-0.00343449111096561,0.00291616795584559,-1.98718306447385,0.0180859183558976,-3.12217036314096
1429364550.78897,-0.115558790280949,0.173349446600955,-9.66905997690856,-0.000736346584744751,-0.000342578743584454,0.00155392230954021,-1.98718170367623,0.0180616446305357,-3.12216955104019
1429364550.79897,-0.15995257021552,0.130833653299557,-9.93709775012135,-0.000546737166587263,-0.000910992617718875,0.00131418672390282,-1.98721340404807,0.0180637930035919,-3.12219655441095
1429364550.81397,-0.153185103640892,0.144986873610783,-9.67034183341265,-0.000798178662080318,-0.00296626472845674,0.00219146418385208,-1.98721272463623,0.0180814275360246,-3.12219120545525
1429364550.81897,-0.169598514835909,0.122371986560291,-9.95228129072785,-0.000505620206240565,-0.00344177661463618,0.00121272553224117,-1.98725736413146,0.0181214026346458,-3.12220068368082
1429364550.82897,-0.153605849803612,0.162139266604837,-9.72706792924106,-0.00187922664918005,-0.000788680335972458,0.0010524372337386,-1.98726329140409,0.0181217845876621,-3.12218727856233
1429364550.84397,-0.1458787626829,0.149543988925871,-9.88676340115666,-0.000689774809870869,0.00256433081813157,0.00114077306352556,-1.98727300725564,0.0180820131505857,-3.12218821858046
1429364550.84897,-0.14865237384839,0.17230037593944,-9.80357366129458,-0.000983045785687864,0.00173082761466503,0.00127567129675299,-1.98728409368351,0.0180628511574001,-3.12218709529506
1429364550.85897,-0.135103339108545,0.188386381810997,-9.77559493652284,-0.00299038900993764,-0.0023276605643332,0.00127765967044979,-1.98727424882436,0.0180736664267825,-3.12215904279029
1429364550.87397,-0.141190650532441,0.199471072263923,-9.85762732304335,-0.00103463465347886,-0.00245536048896611,0.00162018684204668,-1.98727998521605,0.0180976394678303,-3.12214215451412
1429364550.87897,-0.117731403345987,0.207495297433995,-9.68119406681657,-0.000293095101369545,0.000607371737714857,0.00134593877010047,-1.9872541852502,0.0180482746493738,-3.12213261374647
1429364550.88897,-0.151753709997749,0.158745349850226,-9.91483448038697,-0.00120606739073992,-0.00146722118370235,0.000774313230067492,-1.98727167227006,0.0180544066681802,-3.12213857886105
1429364550.90397,-0.170123671221174,0.169745850884728,-9.69796458435357,-0.00200031138956547,-0.00366691662929952,0.00251511624082923,-1.98726483107527,0.0180886621329165,-3.12212417577735
1429364550.90897,-0.16730539893005,0.148616023893375,-9.92530443647504,-0.00293047190643847,-0.00239852257072926,0.00282365083694458,-1.98727105612336,0.0181170438062292,-3.12210755431045
1429364550.91897,-0.170552290163096,0.187222123804595,-9.7480131021142,-0.00098680064547807,-0.000493972387630492,0.00379578792490065,-1.98725026247776,0.0181168446526052,-3.12209331612177
1429364550.93397,-0.15887368893763,0.168794468444027,-9.8591318823874,-0.000364088220521808,0.00282661011442542,0.00226576859131455,-1.98724373153084,0.0180735253659042,-3.12209646996458
1429364550.93897,-0.14522526721023,0.181802692571748,-9.82202993996143,-0.00181930395774543,0.000299536739476025,0.00160463142674416,-1.98725556624723,0.0180616689627231,-3.12208694333927
1429364550.94897,-0.128511612693314,0.193832317458279,-9.73780267374515,-0.00229483447037637,-0.0015392079949379,0.00292885955423117,-1.98721524018163,0.0180574250085434,-3.12205829230606
1429364550.96897,-0.120596830113931,0.209966966510843,-9.65522375925779,-0.00102751131635159,0.000801474670879543,0.00143767008557916,-1.98718123201628,0.0180675484356804,-3.12203419085232
1429364550.97897,-0.146921558867255,0.160483078629337,-9.93836265549064,-0.000889486342202872,0.000314694159897044,0.000403042562538758,-1.98720608961332,0.0180558047235129,-3.122053850788
1429364550.99397,-0.142468862907868,0.177313509660028,-9.67274597194493,-0.00173448177520186,-0.00021354213822633,0.00241961237043142,-1.9871866945708,0.0180465986333471,-3.12204189671138
1429364550.99897,-0.169320264150109,0.14890092351567,-9.9499946410954,-0.00122422398999333,-0.00306213623844087,0.000399275508243591,-1.98721623781954,0.0180817001506999,-3.1220406725633
1429364551.00897,-0.143647459966876,0.174165329561103,-9.74486720530391,-0.000159979346790351,-0.000617732934188098,0.00223968410864472,-1.98720090145044,0.0180832601997547,-3.12204317086579
1429364551.02397,-0.16416388603393,0.151484848194802,-9.85966029017568,-0.000704672420397401,0.00201676320284605,0.00229358486831188,-1.98721382905741,0.0180494105588918,-3.12204334820255
1429364551.02897,-0.142414411040582,0.166903211337328,-9.83505542575121,-0.00123251334298402,0.000602930202148855,0.001939995912835,-1.98722817007427,0.01803596334373,-3.1220461475034
1429364551.03897,-0.129822183835227,0.177322076558974,-9.75371745123565,-0.00181018724106252,-0.000268436939222738,0.0019433192210272,-1.98721805518202,0.0180189629036805,-3.12203557233971
1429364551.05397,-0.121112743746815,0.186549101647548,-9.88492449529171,-0.00037170754512772,-0.00202787597663701,0.00119318277575076,-1.98721011960028,0.018025299627714,-3.12203870587716
1429364551.05897,-0.108247782280995,0.196073794508446,-9.65760276334882,-0.000246390845859423,-9.34533309191465e-05,0.000497572065796703,-1.98719084646485,0.0180085461163542,-3.12203593233307
1429364551.06897,-0.149509876593715,0.143153173643909,-9.96233974340558,0.00160896754823625,-0.00125116831623018,0.00127867085393518,-1.98720567245662,0.0180143187598312,-3.12208067806118
1429364551.08397,-0.138184938510973,0.148383155852417,-9.66008172068298,-2.74215108220233e-05,-0.00314273359254003,0.00238325586542487,-1.98719887156038,0.0180283432253982,-3.1220860273406
1429364551.08897,-0.180323706060369,0.121598481437145,-9.96962639328241,-0.00102554110344499,-0.00219300831668079,0.00311283953487873,-1.98720205450781,0.0180544293384743,-3.1220892353639
1429364551.09897,-0.151786434090417,0.157723130663019,-9.72552946762741,-0.000850937620270997,0.000753219937905669,0.00275007216259837,-1.98719562462469,0.0180260927786693,-3.12208655709468
1429364551.11397,-0.168594105300028,0.139085513213044,-9.88536990097165,0.000127856968902051,0.00294092344120145,0.00288666505366564,-1.98720281443113,0.0179988060776461,-3.12209946039455
1429364551.11897,-0.153856335699651,0.148693564375304,-9.79722166191936,-0.00095250183949247,-7.83058494562283e-05,0.00327718979679048,-1.98719066369545,0.0180001307259596,-3.12211412892855
1429364551.12897,-0.145638825580338,0.166858879005257,-9.76624375533163,-0.00177811039611697,-0.00123694608919322,0.00292423507198691,-1.98719484985253,0.0179969340935282,-3.12209433702377
1429364551.14397,-0.138362614899129,0.173205635949783,-9.84792425967455,-0.00111020787153393,-0.00124821974895895,0.00196177372708917,-1.98720423291209,0.0180011602956011,-3.12209414178325
1429364551.14897,-0.11044078968009,0.180320180662721,-9.6650565864861,-0.00104537105653435,-0.000232600548770279,0.00221266038715839,-1.98717900091757,0.017969478337234,-3.12208562974137
1429364551.15897,-0.162891674141027,0.12778694254742,-9.91887703377604,0.000542432419024408,-0.00106978858821094,0.00287874299101532,-1.98718598317241,0.0179867910422563,-3.12211608093209
1429364551.17397,-0.143520773980441,0.142073607379431,-9.6761198322922,-0.00149809662252665,-0.001259989105165,0.0032594227232039,-1.98717181296543,0.0179852158930078,-3.12210871055956
1429364551.17897,-0.181753263939451,0.123271739278454,-9.92547979304194,-0.00121098000090569,-0.0047589372843504,0.00108309148345143,-1.98720538894684,0.0180408353712959,-3.12210729051406
1429364551.18897,-0.15702932144627,0.158739395033475,-9.73818612010479,-0.000845658883918077,-0.00219936831854284,0.000176683708559722,-1.98721681870655,0.0180563058632686,-3.12211174301506
1429364551.20397,-0.167226707670651,0.145617152604647,-9.86575451539755,0.00010828750237124,0.00188744987826794,-0.000678247713949531,-1.98725880229808,0.0180390755598483,-3.12212866568559
1429364551.20897,-0.150655292902328,0.155155873990897,-9.82090064367056,-0.000113623980723787,-0.000472191808512434,0.00101835292298347,-1.98727222039236,0.0180325197395187,-3.12214303252758
1429364551.21897,-0.126020024206443,0.171270320505649,-9.75185107284188,-0.00133201561402529,-0.000287004862911999,0.00224538124166429,-1.98726112477813,0.0180068653478153,-3.12213194080668
1429364551.23397,-0.134883905937895,0.17004373785276,-9.88300492540598,-0.000407325598644093,-0.00109096942469478,0.00182369293179363,-1.98725922139281,0.0180156905870946,-3.12215044205437
1429364551.23897,-0.0987554573197383,0.175238347353786,-9.65706734129786,-0.000641780090518296,0.00136180396657437,0.00195729592815042,-1.98723384161009,0.017972305510153,-3.12214627767761
1429364551.24897,-0.149517785905534,0.130215914126858,-9.93997710494995,-0.00101016089320183,-0.000232732738368213,0.000307631940813735,-1.9872669656256,0.0179672154932037,-3.12215828813806
1429364551.26397,-0.131121228936128,0.143311058486206,-9.68007120026648,-0.000429268664447591,-0.00119686464313418,0.000704667181707919,-1.98726433657103,0.0179576755441046,-3.12216463824547
1429364551.26897,-0.156276055393554,0.121888742221147,-9.95549499207735,-0.00157038273755461,-0.00266653997823596,0.00104373320937157,-1.98728389893047,0.0179795722620952,-3.12216445366044
1429364551.27897,-0.139241799753299,0.156642641949933,-9.7424250728488,-0.0011062502162531,0.0002550988283474,0.00143052777275443,-1.98727969661877,0.0179663628068113,-3.12215361081095
1429364551.29397,-0.148486771490518,0.148169613566436,-9.87455040079355,-0.0017036444041878,0.000713518122211099,0.0019716122187674,-1.98728867811997,0.0179428418721566,-3.1221526483325
1429364551.29897,-0.140279700566828,0.167534403646644,-9.82233856751919,-0.00117160088848323,-0.000472034676931798,0.00102050672285259,-1.98729948524526,0.0179445147222157,-3.1221501738474
1429364551.30897,-0.113308079611557,0.18379706299305,-9.74931190975308,-0.00360882352106273,-0.000418071373132989,0.00214507640339434,-1.98727935245103,0.0179166419287917,-3.12210922642833
1429364551.32397,-0.11949675991754,0.199376142255776,-9.87097546491623,-0.00124436302576214,-0.00203307648189366,0.00243460456840694,-1.98725746135145,0.0179206561429943,-3.12211358102809
1429364551.32897,-0.0942471404492855,0.218790781093389,-9.66824106174111,-0.000738326227292418,-0.000488252320792526,0.00210252916440368,-1.98721991291565,0.0178953916042721,-3.1220878893574
1429364551.33897,-0.150662142768223,0.171078999184631,-9.92545875025391,6.83651596773416e-05,-0.0012720413506031,0.00285127526149154,-1.98722605398013,0.0179033089806918,-3.12209914761309
1429364551.35397,-0.141929056942742,0.184884529436193,-9.69078256389499,-0.00120345526374876,-0.00366190634667873,0.00248881825245917,-1.98720945473526,0.0179311732405969,-3.12208476465965
1429364551.35897,-0.178692926520761,0.159523494615871,-9.93010219214559,-0.00193162495270371,-0.00275580072775483,0.00275957118719816,-1.98721684341427,0.0179686681033258,-3.12206395761333
1429364551.36897,-0.141533089028252,0.196285939421784,-9.75537807792425,-0.00103285675868392,-0.00189987453632057,0.00429617101326585,-1.98718684544525,0.017967208221933,-3.12204678377995
1429364551.38897,-0.147434294162365,0.192312341349386,-9.84127356961369,-0.00103997066617012,-0.000507816614117473,0.000967664585914463,-1.98719822080076,0.017939504972354,-3.12205390037589
1429364551.39897,-0.12569122151034,0.203646951442771,-9.72778338403404,-0.000901395862456411,-0.00185163994319737,0.00220189895480871,-1.98717608657053,0.0179411428576123,-3.12203193989678
1429364551.41897,-0.110056904929038,0.213229237976111,-9.64477484595776,0.000472031737444922,7.90666308603249e-06,0.00253707426600158,-1.98712367079534,0.0179398829920816,-3.12203755895388
1429364551.42897,-0.167057251121569,0.16564228802342,-9.95209424372315,-0.000463286589365453,-0.00170220457948744,0.00133339536841959,-1.98714114757646,0.0179591558705542,-3.12204563169449
1429364551.44397,-0.160856606383156,0.169918430972658,-9.67075684395432,-0.00142000056803226,-0.00253695552237332,0.00184947391971946,-1.98714038816537,0.0179734061643396,-3.12203893450616
1429364551.44897,-0.194533981187921,0.142656467034994,-9.94608302060962,-0.00127924373373389,-0.00458030309528112,0.00239867088384926,-1.98716458327342,0.0180301793261478,-3.12204012107155
1429364551.45897,-0.183716362439655,0.181342345051002,-9.73682710671127,-0.00129437120631337,-0.000471059523988515,0.00245398096740246,-1.98717455275919,0.0180352142626609,-3.12202881034911
1429364551.47397,-0.168898933465499,0.164381492573675,-9.8614103487134,-0.000185097189387307,0.00145401083864272,0.00215608859434724,-1.98717772540017,0.0180042590407318,-3.12202834210911
1429364551.47897,-0.155549202423729,0.183877361687645,-9.81663947909474,0.000242505906498991,0.0010210108011961,0.000408053630962968,-1.98720246193027,0.0179808742701377,-3.12204029609171
1429364551.48897,-0.129304644500837,0.195672976888902,-9.74548270685375,-0.00169656029902399,-0.00027207683888264,0.00129589647985995,-1.9871900457107,0.0179621930586512,-3.1220181504255
1429364551.50397,-0.13161810907498,0.191360885843448,-9.87140684207082,-0.000819943787064403,-0.0034223843831569,0.00216240179724991,-1.98717694525567,0.0179956190904798,-3.12200557966156
1429364551.50897,-0.112652273450792,0.196900911248662,-9.64784066326916,0.00102568918373436,-0.00100262160412967,0.00171980285085738,-1.98715750977653,0.0179686284484825,-3.12201801887467
1429364551.51897,-0.165915278012212,0.140610768285254,-9.9351173899591,2.32940728892572e-05,0.000718434457667172,0.00253978581167758,-1.98719350667161,0.017956841930725,-3.12204094091439
1429364551.53397,-0.146981581958802,0.155861136183422,-9.68357423995137,-0.00172559544444084,-0.000618106103502214,0.00081383012002334,-1.98720549338549,0.0179575760998288,-3.12203246148072
1429364551.53897,-0.178924104928132,0.125165206608549,-9.93727778286338,-0.000723837350960821,-0.00235502258874476,0.00111984612885863,-1.98723446957116,0.0179933753875727,-3.12205006936358
1429364551.54897,-0.160360109836794,0.157678780064639,-9.75040555020869,0.00050463603110984,-0.00124516384676099,0.00193242623936385,-1.98723002468988,0.018000838027395,-3.12206020981123
1429364551.56397,-0.162599997718073,0.13027237528814,-9.8607358104527,0.00134895788505673,0.000938832992687821,0.00229820096865296,-1.98723244374858,0.0179742814722908,-3.12209525133588
1429364551.56897,-0.151698609676491,0.141328424168471,-9.82244728859067,-0.000161865827976726,0.00236145546659827,0.00328542105853558,-1.98723732611138,0.0179404306460282,-3.12211684194034
1429364551.57897,-0.116204275977099,0.151857645296259,-9.74129226942658,-0.00246053445152938,-0.000674737733788788,0.00259923422709107,-1.98721471714802,0.0179353976117173,-3.12210489655518
1429364551.59397,-0.125621398543986,0.153068180996645,-9.87520038913488,-0.00180619093589485,-0.00274344813078642,0.00289373006671667,-1.98721287183525,0.0179447372938343,-3.12210824616771
1429364551.59897,-0.0886210533289704,0.157469466429204,-9.65960708890855,-0.00151704554446042,-0.0010376243153587,0.00272560585290194,-1.98716810645097,0.0179149362454176,-3.12210663676508
1429364551.60897,-0.140141945197107,0.104089137364738,-9.93226375409365,-0.000267338153207675,-0.00133332493714988,0.00237420876510441,-1.9871758421222,0.0179154342939137,-3.12214049871461
1429364551.62397,-0.132772859467519,0.124616240089433,-9.68984557530582,-0.00100225117057562,-0.00155964039731771,0.00348757230676711,-1.98715528742757,0.017912887551346,-3.12214685317506
1429364551.62897,-0.15582549861446,0.102430766565306,-9.94240520887971,-0.00176231667865068,-0.00288913515396416,0.00187626003753394,-1.98717846316283,0.0179471958196307,-3.12214621417382
1429364551.63897,-0.147544339541253,0.134104080671817,-9.75498761730194,-0.000694020767696202,-0.0018404972506687,0.00268889567814767,-1.98717695527203,0.0179561853395057,-3.1221611239007
1429364551.65397,-0.157430467859376,0.120967827983946,-9.86541081652641,-0.00120300892740488,0.00247855181805789,0.000887184054590762,-1.9871900940159,0.0179235475127203,-3.12216799240828
1429364551.65897,-0.140254155133618,0.144850415149005,-9.83705332157016,-0.00210565654560924,-0.000201778253540397,0.00108177878428251,-1.98720148312822,0.017914356595486,-3.12215956515069
1429364551.66897,-0.122799783518305,0.16421632860722,-9.7347339338243,-0.00224442454054952,-0.00258286204189062,0.0029463293030858,-1.98717105943689,0.0179117616718728,-3.12214546288306
1429364551.68397,-0.120790516921971,0.173636501647718,-9.88625954328775,-0.00200553378090262,-0.00165759003721178,0.000745480065234005,-1.9871731865925,0.0179208211982161,-3.12213780203168
1429364551.68897,-0.104292487050267,0.189527478137519,-9.65199018416405,-0.00278121698647738,0.00048576615517959,0.00280541134998202,-1.98713282469271,0.0178817434840181,-3.12211166562071
1429364551.69897,-0.1423796411213,0.147586233321065,-9.94434231442213,-0.00138700765091926,-0.000161626026965678,0.00199358374811709,-1.9871349808786,0.0178739736829735,-3.12212634182044
1429364551.71397,-0.147300603046408,0.162946454801876,-9.67835796660781,-0.00225962535478175,-0.00278070033527911,0.00137466250453144,-1.98714389251232,0.0178880808080788,-3.12210990288263
1429364551.71897,-0.181387919492088,0.134314709481504,-9.94982980592251,-0.00268914178013802,-0.00250613084062934,0.00262301997281611,-1.98715611979949,0.0179211639358161,-3.12210041487303
1429364551.72897,-0.160792400306836,0.173789262790326,-9.74608301083446,-0.000695034745149314,-0.000176548724994063,0.00269466056488454,-1.98715206850546,0.0179216360780175,-3.12208778412819
1429364551.74897,-0.160808547724038,0.179451124476921,-9.82891911495328,-0.00113524275366217,-0.000716824899427593,0.00232151919044554,-1.98716228258152,0.0178827584202285,-3.12208986104159
1429364551.75897,-0.130478355322173,0.195169539145101,-9.73450830837488,-0.00331765855662525,-0.00193507154472172,0.00330308079719543,-1.98713041932307,0.0178851465347521,-3.12205658559051
1429364551.77397,-0.14905403171815,0.191068095175643,-9.86711645140052,-0.00100769510027021,-0.0035125135909766,0.00249354890547693,-1.98713772990731,0.0179224081597509,-3.12205637168013
1429364551.77897,-0.128427386742271,0.208741644233279,-9.68034709459841,0.000527657044585794,-0.000964736798778176,0.00232934835366905,-1.98711162637956,0.0179085842896172,-3.12205476101334
1429364551.78897,-0.179826606725808,0.148929857349209,-9.89007880931497,-0.000801887654233724,-0.000586271635256708,0.00146214757114649,-1.98713616047396,0.0179125543270181,-3.12206624869961
1429364551.80397,-0.165299794728681,0.166599734878726,-9.74854618607759,0.000198137335246429,-0.00229760259389877,0.000998261384665966,-1.98714445688226,0.0179314713534804,-3.12207177208884
1429364551.80897,-0.184964134011045,0.154907671383489,-9.84760511072278,-0.00127846444956958,-0.00123025488574058,0.0021092917304486,-1.98717310579936,0.0179549176933515,-3.12205395039613
1429364551.81897,-0.172579357277602,0.188231794037484,-9.84483447696567,0.000200985494302586,-0.00308394012972713,0.000907139969058335,-1.98719440223343,0.0179851987593763,-3.12206077420938
1429364551.83897,-0.158036160401255,0.17290796817746,-9.90503204829693,-0.000379392557078972,0.000898983096703887,0.000621292681898922,-1.98722500697109,0.0179194021783929,-3.12206566417129
1429364551.84897,-0.0942115028803237,0.204963897526544,-9.66519804078341,-0.000728353043086827,-0.000578386418055743,0.00106175651308149,-1.98719010479988,0.0178977937658205,-3.12204025452771
1429364551.86397,-0.132924424166884,0.194818716413435,-9.89414123644829,0.000251516641583294,-0.00355234206654131,0.00300923897884786,-1.98716243612679,0.0179238613226157,-3.12204361400896
1429364551.86897,-0.0859399336193688,0.210806705270614,-9.67823638605475,0.00012921194138471,-0.00132650695741177,0.00220560189336538,-1.98711252966515,0.0179030155798706,-3.1220423975974
1429364551.87897,-0.157665299528558,0.14850659043584,-9.86732103406191,-0.00121298013255,-0.000208885670872405,0.00182540889363736,-1.98712860349591,0.0178981488427167,-3.12205609905849
1429364551.89397,-0.152787592223287,0.163443261875492,-9.8157802319169,-0.00118859112262726,-0.00229410082101822,0.00107819098047912,-1.98714300912693,0.0179099975665318,-3.12206026916759
1429364551.89897,-0.165579890311696,0.144689899958204,-9.78644541636109,-0.00111049436964095,-0.00359663320705295,0.00149378110654652,-1.98715109979687,0.0179440571664776,-3.12205882883479
1429364551.90897,-0.161636376850307,0.167600107560307,-9.93729882565141,-0.00134325900580734,-0.00131338927894831,0.00224632979370654,-1.98714951964464,0.0179415333407915,-3.12205320531829
1429364551.92397,-0.11147336586453,0.164197788303532,-9.67426923598945,-0.000743923243135214,0.00350335869006813,-0.000201035567442887,-1.98714659375877,0.0178727220946087,-3.1220470484959
1429364551.92897,-0.136772076038364,0.15107927220175,-9.99849242228269,-0.00164982408750802,-0.00113081245217472,0.00214912137016654,-1.9871418554617,0.0178712499624834,-3.12204819850103
1429364551.93897,-0.0765918851001654,0.188489348995127,-9.61765127671063,-0.000478881702292711,-0.00112907914444804,0.00163949187844992,-1.98710447707265,0.0178499892920515,-3.12203849610596
1429364551.95397,-0.131590581747238,0.165462145683542,-9.97601287944913,-0.00161944748833776,-0.0025212736800313,0.000418607000028715,-1.9871210794719,0.0178546624143067,-3.12204016725688
1429364551.95897,-0.0812657403964084,0.189301396030374,-9.63878115850091,-0.000614961609244347,-0.00119662680663168,0.00280137779191136,-1.98706931791418,0.0178352857501413,-3.12203261983313
1429364551.96897,-0.146757098153699,0.126762577068899,-9.9190383618176,0.000154229215695523,-0.00046959615428932,0.00184375606477261,-1.9870977390266,0.0178252850675403,-3.12206845772505
1429364551.98397,-0.142823558097053,0.128340439111181,-9.77030559794307,-0.000558758445549756,-0.00279264384880662,-5.41638655704446e-05,-1.98713070255663,0.0178409378183074,-3.12208524167719
1429364551.98897,-0.176965390342101,0.119437988068163,-9.83572411879301,-0.00169636716600507,-0.00431224424391985,0.00196522241458297,-1.98714487610381,0.01789524332742,-3.12207572696708
1429364551.99897,-0.179182609733846,0.14068325813273,-9.87908395256996,-0.00210324209183455,-0.00318714836612344,0.00184679205995053,-1.98715889907232,0.0179307801628225,-3.12207360706219
1429364552.01397,-0.155711443780735,0.150095074336836,-9.70835270737708,-0.00047399551840499,-0.000316892372211441,0.0005701431655325,-1.98716443199189,0.0179223734634909,-3.1220845182385
1429364552.01897,-0.182631818605959,0.14118971895068,-9.9503289876163,0.000380524521460757,-0.00225024600513279,0.000219023975660093,-1.98719554735426,0.0179480439732886,-3.12211221371035
1429364552.02897,-0.123378670251649,0.182074257788435,-9.63373556554913,-0.00331375887617469,-0.001680449815467,0.000752021674998105,-1.98718287243655,0.0179417453830148,-3.1220780916692
1429364552.04397,-0.16510872913599,0.166343330698553,-9.9447807058394,0.000127384511870332,-0.00352115510031581,0.00117555470205843,-1.98719871128868,0.0179849996554392,-3.12210283722361
1429364552.04897,-0.121161094666878,0.193759106091596,-9.64085445764363,-0.000520199362654239,-0.00149993295781314,0.00356636778451502,-1.98717463068674,0.0179815797661985,-3.12209075541198
1429364552.05897,-0.183835129981115,0.137524894566508,-9.90738533342481,0.00010131473391084,-0.00109578645788133,0.00189025443978608,-1.98720593250637,0.0179886070604287,-3.1221005571542
1429364552.07397,-0.15656692809891,0.147231912591215,-9.74763667001724,0.000133730325615034,-0.00118312600534409,0.00315927644260228,-1.98719653344192,0.0179939986988756,-3.12212049725244
1429364552.07897,-0.197222928010952,0.148322045915481,-9.84874375936389,-0.000340817787218839,-0.00312061631120741,0.00277070864103734,-1.98720938851254,0.018038020288546,-3.12212265102656
1429364552.08897,-0.163090192387812,0.172956483494304,-9.85284593398571,0.000314398261252791,-0.00171877339016646,0.00198279228061438,-1.98721219429934,0.0180420682896239,-3.12212280218693
1429364552.10397,-0.161032857999206,0.171867884539999,-9.73981576713324,-0.00114110915455967,0.0020894818007946,0.000656396616250277,-1.98722375800421,0.0180137928587768,-3.12211702311195
1429364552.10897,-0.176042247615196,0.153523213021457,-9.92537341005802,-0.00141664710827172,0.00139210000634193,0.00248357327654958,-1.98723072543073,0.0179998977392629,-3.12212698236413
1429364552.11897,-0.133000612941943,0.17501343429042,-9.68230816553831,-0.00138219306245446,-0.000948375789448619,0.00349521171301603,-1.98720499628623,0.0179987523824317,-3.12211801172991
1429364552.13397,-0.16073427691143,0.155639858115558,-9.9193668631196,-0.000678081472869962,-0.00233818660490215,0.00160899118054658,-1.9872192664031,0.0180111057812032,-3.12212593212783
1429364552.13897,-0.0987440408765804,0.172958090929501,-9.6632942529887,-0.000670695502776653,-0.000239889035583474,0.00219153892248869,-1.98719183976518,0.0179749637494339,-3.12211870098202
1429364552.14897,-0.158418967440072,0.133552611668361,-9.8969060249865,-0.0012315601343289,-0.000819044827949256,0.00269185425713658,-1.98719422524829,0.0179752161799825,-3.12212691640087
1429364552.16397,-0.119964706222853,0.138985057646409,-9.7434281124115,-0.000387364532798529,-4.10418142564595e-05,0.00246055331081152,-1.98718057387906,0.017960675773468,-3.12214152549353
1429364552.16897,-0.163118523433153,0.140589296238963,-9.84088427803516,-0.000895336561370641,-0.00165011931676418,0.0033083816524595,-1.98717812874478,0.0179861631370978,-3.1221395347085
1429364552.17897,-0.12858043101267,0.160258421294298,-9.84151439263225,-0.000605539418756962,-0.00125491060316563,0.00118070875760168,-1.98716810450516,0.0179873643929677,-3.12214045197354
1429364552.19397,-0.118846406250028,0.160935863898136,-9.74045523408055,-0.000977927586063743,0.00230044545605779,0.00172768288757652,-1.98716356881154,0.0179384574900834,-3.12213891639549
1429364552.19897,-0.123555780384224,0.145857217571372,-9.90284126025438,0.00115754711441696,0.000944424187764525,0.000716323091182858,-1.98717239542198,0.0179029744402575,-3.12216343211961
1429364552.20897,-0.100961415531952,0.16969105195757,-9.69277402997315,-0.000539019296411425,-0.00221821363084018,0.00162510015070438,-1.98714993541675,0.0179038589673722,-3.1221561128256
1429364552.22397,-0.130613051085127,0.155256758815795,-9.90044355146289,-0.00134815543424338,-0.00495166284963489,0.00174059614073485,-1.98713291389377,0.0179391252483692,-3.12215051039252
1429364552.22897,-0.0867195762223564,0.181423009071778,-9.68353156985343,-0.00196099863387644,-0.00110818713437766,0.00197765743359923,-1.98709658955107,0.0179097517943314,-3.12212428507739
1429364552.23897,-0.150273682306753,0.143377666582167,-9.86769980424643,0.000492875173222274,0.00078427157131955,0.000870006158947945,-1.98711546906366,0.0178933074725673,-3.12214348423765
1429364552.25397,-0.112147949791001,0.153314228179585,-9.78082640743554,-0.000311886804411188,-0.000343792838975787,0.00217115809209645,-1.98709691342817,0.0178773984345786,-3.12214815416394
1429364552.25897,-0.153062153114658,0.158858400036953,-9.80282956492901,-0.00199256208725274,-0.00320733594708145,0.00066020869417116,-1.98710658504903,0.0179042219225686,-3.12213049851333
1429364552.26897,-0.136792059380468,0.179449261313397,-9.87007062503099,-0.000943083665333688,-0.00345386750996113,0.00134820898529142,-1.98710663239416,0.017931101758857,-3.12213152669873
1429364552.28397,-0.143403970067203,0.183354616455175,-9.73329250284433,-0.00116495916154236,-0.000325476925354451,0.0008879498927854,-1.98711420445273,0.0179283710594934,-3.12212468819015
1429364552.28897,-0.169979111651331,0.150510651134094,-9.90877532647848,8.05132513050921e-05,0.000136292423121631,0.00172078073956072,-1.98713769463937,0.0179191115498336,-3.12214971087867
1429364552.29897,-0.136643892214587,0.168480452325102,-9.71655705662072,-0.00179143529385328,-0.00191571074537933,0.00303216534666717,-1.98711927255268,0.0179305825674875,-3.12213935587791
1429364552.31397,-0.176984095042571,0.143948132547038,-9.86822002872825,-0.00139755511190742,-0.00296785542741418,0.00326439552009106,-1.98712336807479,0.0179522871327689,-3.12213252381419
1429364552.31897,-0.124409438071493,0.176722302301228,-9.75167396270931,-0.000323744374327362,-0.00218213791958988,0.00189719314221293,-1.9871206046947,0.0179548694729621,-3.12213315574365
1429364552.32897,-0.178006131566688,0.141729926774604,-9.77944927386343,2.05007781914901e-05,0.00191880390048027,0.00126114801969379,-1.98714154597264,0.0179370701846405,-3.12214110539305
1429364552.34397,-0.162852328511327,0.14091889351951,-9.86495839658379,-0.00165833893697709,-6.7351786128711e-05,0.00329087534919381,-1.98714934007109,0.0179396810609604,-3.12215031294639
1429364552.34897,-0.192757290371601,0.156385251389071,-9.72225848313272,-0.00288017094135284,-0.0035815411247313,0.00356176821514964,-1.98714864684736,0.0179878778579057,-3.12212817576226
1429364552.35897,-0.185394305589236,0.169880674511846,-9.94211294793486,-0.00165424239821732,-0.00207086000591516,0.00163756986148655,-1.98716371349175,0.01800606289175,-3.12212041689798
1429364552.37397,-0.153238970986288,0.191554362588935,-9.67787632057071,-0.000610085087828338,0.0018332228064537,0.00316535495221615,-1.98714906172243,0.0179773745150146,-3.12211514040321
1429364552.37897,-0.194212804675847,0.157211253884435,-9.94512557375431,-0.000879648607224226,0.000707671511918306,0.00218081683851779,-1.98718068695416,0.0179661752722888,-3.122126703296
1429364552.38897,-0.13599342894922,0.187381899209879,-9.72043711292446,-0.00226334808394313,-0.00203334959223866,0.00137617322616279,-1.98717043286161,0.0179801254460616,-3.12210422756858
1429364552.40897,-0.122330485506123,0.196196288376953,-9.79639514796734,-0.00108876929152757,-0.00130958925001323,0.00177178194280714,-1.98715801486292,0.0180007513426882,-3.1220912550382
1429364552.41897,-0.1425404577062,0.169058416609839,-9.73501684241891,-0.000727650884073228,0.00100916787050664,0.00217112805694342,-1.98715717533451,0.0179697624233065,-3.12208598130453
1429364552.43397,-0.14195552482456,0.151896022811579,-9.91287048683762,-0.000162437587277964,-0.00109541858546436,0.00210064696148038,-1.98716273670154,0.0179684927018291,-3.12210002440421
1429364552.43897,-0.144869759170292,0.183607988428045,-9.67349357544184,-0.00181008176878095,-0.00309156673029065,0.0015966750215739,-1.98715213503037,0.018005538453996,-3.12206735398543
1429364552.44897,-0.163251100304257,0.17507283632746,-9.98557448852062,0.000215089094126597,-0.00487474072724581,0.000477573834359646,-1.98717047815146,0.0180503548190362,-3.12208158709558
1429364552.46397,-0.128962005075626,0.196351058813557,-9.65751157793403,0.001200633472763,0.000261769717326388,0.0019220425747335,-1.98714652806254,0.0180224933345084,-3.12208745930994
1429364552.46897,-0.148718178226752,0.146082906952873,-9.96876363897324,-0.000501535891089588,0.00145111687015742,0.000687076942995191,-1.98717365235744,0.0179895779378888,-3.12210844632412
1429364552.47897,-0.0950600368679035,0.173730043416377,-9.71256009593904,2.32900529226754e-05,0.000408866675570607,0.000905825232621282,-1.98716552026426,0.0179706609849797,-3.12211790516911
1429364552.49397,-0.10959784518308,0.148914276187588,-9.8546825017631,-0.00225050467997789,-0.0014884666306898,0.00182031642179936,-1.98714812843947,0.0179622939791413,-3.12209783283779
1429364552.49897,-0.0781086463386658,0.167987024518661,-9.777581141904,0.000121816745377146,-0.001654953812249,0.00236560986377299,-1.98711663813314,0.0179515619505943,-3.12210362822956
1429364552.50897,-0.118193120839912,0.15242540784739,-9.74256594262421,-0.000990337575785816,0.000526279967743903,0.00156429375056177,-1.98710360864585,0.0179227312538202,-3.12210573252042
1429364552.52397,-0.121655444921926,0.133533980033128,-9.90006361223459,-0.00067220552591607,-0.00152621779125184,0.00131100660655648,-1.98711054297511,0.0179140999272496,-3.12211776013818
1429364552.52897,-0.143137026226707,0.166312972092908,-9.68300959180593,-0.00222529633902013,-0.00429702736437321,0.00227067829109728,-1.98709506071323,0.0179448300997521,-3.12209449806417
1429364552.53897,-0.153569737310614,0.15862457301477,-9.98458781557083,-0.00105839397292584,-0.00551555724814534,0.00251376582309604,-1.98710883829424,0.0180000611355346,-3.1221047480114
1429364552.55397,-0.139401776087983,0.178406620392669,-9.6621661257416,-0.00116664136294276,-0.00220091454684734,0.00177289883140475,-1.98710480896895,0.0180023026273671,-3.1220893038464
1429364552.55897,-0.163697857691068,0.13722297987733,-9.97518987262845,-0.000282142456853762,-0.000867772905621678,0.00138935702852905,-1.9871349657764,0.0180059766133538,-3.12211538108184
1429364552.56897,-0.121056227786606,0.160976415104233,-9.68606254963577,-0.0019510448910296,0.000365758751286194,0.000715957605279982,-1.98712678680984,0.0179724321253532,-3.12210377821105
1429364552.58397,-0.141566836034227,0.149998947885446,-9.88560955494642,-0.00121139630209655,-0.00255727022886276,0.00147968577221036,-1.98712734623142,0.0179885646040252,-3.12210234264891
1429364552.58897,-0.0948162455741316,0.178060437303502,-9.73045932524502,-0.000938164128456265,-0.00240706466138363,0.000868225411977619,-1.98711293639064,0.0179966202990142,-3.12208213336924
1429364552.59897,-0.151194377348246,0.167315792459901,-9.78172774018943,-0.000329374364810064,-0.000188378675375134,0.00114690500777215,-1.98710784046452,0.0179885756697546,-3.12208417641684
1429364552.61397,-0.150154211512394,0.160082425406575,-9.86402433060408,-0.000930976704694331,-0.0017905825516209,0.00103600160218775,-1.98712659471618,0.0179991185974146,-3.1220924850349
1429364552.61897,-0.196823279435188,0.172590901584923,-9.71733271716833,-0.000615448807366192,-0.00433838320896029,0.00233047408983111,-1.98713549528695,0.0180454307840195,-3.12208764687171
1429364552.62897,-0.173922899107356,0.156892123198975,-9.94785061480403,-0.000274720747256652,-0.00363182462751865,0.00167887972202152,-1.98715491096476,0.0180909651446053,-3.12210401792916
1429364552.64397,-0.180924704160821,0.163422785343043,-9.6778652146548,0.000595811812672764,-0.00074056995799765,0.0011314123403281,-1.98715998812621,0.018096680579382,-3.12210843543881
1429364552.64897,-0.187379433258157,0.118614716386003,-9.96536990488172,0.000734701054170728,-0.000194847190869041,0.00159913441166282,-1.98718467703503,0.0180975305262568,-3.12214124473859
1429364552.65897,-0.155390559529606,0.145804564935528,-9.67082172588408,-0.00103443523403257,2.15441104955971e-05,0.000622478662990034,-1.98721281649811,0.0180906650696337,-3.12214114661741
1429364552.67397,-0.177845680307969,0.142242826466495,-9.89974913945794,-0.000341875769663602,-0.00188575498759747,0.000792648002970964,-1.98722925893824,0.0181085888737437,-3.1221465184071
1429364552.67897,-0.11650575227486,0.179215342959668,-9.70796283127665,0.000939801800996065,-0.00122793577611446,0.000836321734823287,-1.98722735089075,0.018105683690419,-3.12215565798958
1429364552.68897,-0.15658176034186,0.162872549315449,-9.807137491256,0.000419015384977683,0.000725527235772461,0.00191754195839167,-1.98722960468165,0.0180830369182467,-3.12216884306495
1429364552.70397,-0.133544894152787,0.15152586519178,-9.82085154383183,0.000288595532765612,-0.00224770721979439,0.00310699851252139,-1.98722678722697,0.0180962233290841,-3.12218591192181
1429364552.70897,-0.169464458393771,0.160363726565987,-9.75943758244812,-0.00240479200147092,-0.00341910123825073,0.00249758502468467,-1.98723573338062,0.0181235578716754,-3.12216556203086
1429364552.71897,-0.164958196483087,0.147362425369397,-9.89637411006689,-0.00229877675883472,-0.00245583080686629,0.00258355890400708,-1.98724413841326,0.0181429111030242,-3.12215748881168
1429364552.73397,-0.15577440774804,0.164358312627487,-9.73198960355222,-0.00195040064863861,-2.88759474642575e-05,0.000512844824697822,-1.98726643103525,0.018133572049175,-3.12215538405633
1429364552.73897,-0.175145773699507,0.133831602139678,-9.89778280782103,-0.00220327684655786,0.000644849904347211,0.00102903856895864,-1.98727365014124,0.0181153915040728,-3.12214437655758
1429364552.74897,-0.126060593678849,0.165002821076103,-9.76900445221662,-0.000587770249694586,0.00022353652457241,0.00254065566696227,-1.9872540067208,0.018101622915059,-3.12214431442247
1429364552.76397,-0.146892606767407,0.1634957409814,-9.81193641597032,-0.00182692660018802,-0.00293809315189719,0.00338235544040799,-1.98723613578316,0.0181137228887471,-3.12212607618847
1429364552.76897,-0.112871898417687,0.186812118231598,-9.8148964348197,-0.00118727434892207,-0.00206834566779435,0.00101018510758877,-1.98723366895115,0.0181195360317158,-3.12211161659231
1429364552.77897,-0.130697213104088,0.18426446130909,-9.72513549987376,5.4919182730373e-05,-8.7789332610555e-05,0.000926510023418814,-1.98722762440903,0.018104391506465,-3.1221072306132
1429364552.79397,-0.132730974820862,0.155042093151808,-9.88874960653782,0.000773917068727314,-0.00144684733822942,0.000578950566705316,-1.98724346723254,0.0180992607205152,-3.12213529374976
1429364552.79897,-0.139831755869929,0.180159309278894,-9.7231381885767,-0.00157760118599981,-0.00270946021191776,0.0017565859016031,-1.98723215566365,0.0181211281118842,-3.12211785992296
1429364552.80897,-0.154123937127274,0.150647073063254,-9.9155581184864,-0.00140717357862741,-0.00388430966995656,0.0017548716859892,-1.98724533472962,0.0181590613341969,-3.12212382562791
1429364552.82397,-0.119744505867222,0.171078853054158,-9.74778513857722,-0.000653445720672607,0.000118524709250778,-0.000432538974564523,-1.98725311152576,0.0181421204835593,-3.12212105709797
1429364552.82897,-0.14860772185591,0.129487334990827,-9.84746131833792,0.00144749309401959,0.00203744298778474,0.000890382216311991,-1.98725826610128,0.0181049716949244,-3.12215079994827
1429364552.83897,-0.120905594669003,0.143602999770641,-9.84301778293252,-0.0011115298839286,-0.00122053152881563,0.0013533744495362,-1.98725340444185,0.0181043763519106,-3.12215748055004
1429364552.85897,-0.121114424247248,0.160635054320656,-9.90592636678815,-0.000259512249613181,-0.00233263382688165,0.000517323205713183,-1.98724538426821,0.0181278368434035,-3.12214753662005
1429364552.86897,-0.126442962326249,0.175914876642171,-9.62409446150064,-0.00106594816315919,-0.000656349642667919,0.00137453863862902,-1.98723196105383,0.0181130014456032,-3.12213175968914
1429364552.88397,-0.164442538578529,0.13475655323118,-9.97435634441376,-0.000125579026644118,-0.00157388672232628,0.00166993716266006,-1.9872491192656,0.0181235819032108,-3.12216849672395
1429364552.88897,-0.164109562030807,0.169383337715268,-9.65090414249301,-0.00179811543785036,-0.00352446106262505,0.000847056333441287,-1.98726841619609,0.0181553820914439,-3.12215683147643
1429364552.89897,-0.180492797283269,0.141563429367589,-9.96625370197892,-0.000815715233329684,-0.00217309081926942,0.00271431193687022,-1.98728282448745,0.0181765813036267,-3.12217116431422
1429364552.91397,-0.146936107982416,0.172796196632367,-9.72368296297789,0.000534454244188964,0.000712475972250104,0.00210948288440704,-1.98728471462364,0.01816240394657,-3.12217865245128
1429364552.91897,-0.156339421219658,0.123763504850771,-9.86767408528328,0.000577110389713198,0.00295847002416849,0.00296206213533878,-1.98728488603433,0.0181218919815276,-3.12220596598739
1429364552.92897,-0.137076648475509,0.138929984724615,-9.82639281134605,-0.00200122152455151,-0.000814177852589637,0.00120191078167409,-1.98731021536266,0.0181204644479016,-3.12218952890266
1429364552.94397,-0.136629626227217,0.165391783861071,-9.73096084502637,-0.00237549748271704,-0.00165344798006117,0.00283603928983212,-1.98728169704959,0.0181215294927524,-3.12215594554354
1429364552.94897,-0.124177556411223,0.178264051850513,-9.90704981786013,-0.000773049658164382,-0.00289774662815034,0.00208137673325837,-1.9872735732703,0.0181351167406137,-3.12215705337475
1429364552.95897,-0.122493402716564,0.201660490333289,-9.63613795051575,0.000132598506752402,-0.000386121449992061,0.00230243569239974,-1.98725889363292,0.0181192050925395,-3.12215865929878
1429364552.97397,-0.158272745636106,0.15779793119859,-9.98870168063045,-0.00102574611082673,0.000137313531013206,0.0028425648342818,-1.98726781353143,0.0181047317824409,-3.12216061867386
1429364552.97897,-0.15296560653816,0.184605274103396,-9.65078373098373,-0.00147208035923541,-0.00309538724832237,0.00426525855436921,-1.98725529193029,0.0181273100248485,-3.12214551085971
1429364552.98897,-0.179354130375851,0.148165914638853,-9.98344332171082,-0.00179323076736182,-0.00458610150963068,0.00232179998420179,-1.98728086421429,0.0181794211323853,-3.12214002013528
1429364553.00397,-0.163177286149375,0.170832239615638,-9.71078607200384,-0.000672516121994704,-0.0023177107796073,0.00162688794080168,-1.9873062598467,0.0181927014567354,-3.12213950674079
1429364553.00897,-0.169396325061005,0.140210297725582,-9.90441946935654,-0.00162909657228738,0.00226021022535861,0.00250314897857606,-1.98730431398039,0.0181511207056912,-3.12213218857408
1429364553.01897,-0.137552641089959,0.161271616924833,-9.78405179922283,0.000430556072387844,0.00036459433613345,0.0020020380616188,-1.98730067386328,0.0181299040245741,-3.1221461398595
1429364553.03397,-0.131022033744818,0.173528255500272,-9.77610113247931,-0.00144078466109931,-0.00336678186431527,0.00374575727619231,-1.98726406749029,0.018154849785754,-3.12212485482755
1429364553.03897,-0.121294447856117,0.1840296113736,-9.85655998607278,-0.000842283887322992,-0.00396371632814407,0.00315581168979406,-1.98724215416929,0.0181796424469339,-3.12212697177303
1429364553.04897,-0.124431933031091,0.194825895072892,-9.67189607711732,-0.00148018472827971,-0.00166559126228094,0.00242670183070004,-1.98721754056714,0.0181603349263545,-3.12210478912294
1429364553.06897,-0.15154013117915,0.165269015997928,-9.65966261848807,-0.00190446362830698,6.47601846139878e-05,0.00378743279725313,-1.98721241814094,0.018139521900984,-3.12211606027554
1429364553.07897,-0.162373769480456,0.129418991595507,-9.96354619658589,-0.00198047328740358,-0.00294644897803664,0.00266692438162863,-1.98722300223435,0.0181711257291869,-3.12210964331038
1429364553.09397,-0.143646254390478,0.16087812409522,-9.69020680983365,-0.000381446647224948,-0.00283643743023276,0.00199950183741748,-1.98722521285947,0.0181910054762833,-3.12211572714616
1429364553.09897,-0.175874727294873,0.138592149338685,-9.90733389549851,0.000848095980472863,3.72176291421056e-05,0.00136028497945517,-1.98723712281017,0.0181666587743166,-3.12214182921019
1429364553.10897,-0.15007542892145,0.150020136803947,-9.76677742381692,0.000702311634086072,0.000379194825654849,0.00205250969156623,-1.98723428006409,0.0181610013146726,-3.12216889495196
1429364553.12397,-0.150875584589504,0.157010982071981,-9.79286171314418,-0.00130829866975546,-0.0020287474617362,0.00213119806721807,-1.98722616714457,0.0181697248644204,-3.12215499083134
1429364553.12897,-0.123170224265894,0.172362883249018,-9.82133669700026,-0.000617339741438627,-0.00195166480261832,0.000933229050133377,-1.9872289026518,0.0181760930162114,-3.12216087494589
1429364553.13897,-0.121337547212327,0.173903682950232,-9.69190367687941,0.000216987784369849,-0.00050280150026083,0.00212902529165149,-1.98721260465062,0.0181566923099925,-3.12215886076585
1429364553.15397,-0.144767577437451,0.127338869986357,-9.90577556014061,0.00027938760467805,-6.89900989527814e-05,0.0018367056036368,-1.98723487915213,0.0181415742380456,-3.12218929654584
1429364553.15897,-0.146826245266618,0.149828386224667,-9.67749053612351,-0.000609369773883373,-0.00146242161281407,0.00256174895912409,-1.98723134805987,0.0181412829920876,-3.12218596169483
1429364553.16897,-0.162186137953866,0.129644388716063,-9.95057214872241,-0.0024036152753979,-0.00253797229379416,0.00209548766724765,-1.98725412696347,0.0181672445723128,-3.12218380691213
1429364553.18397,-0.125753025567019,0.163747030595038,-9.70161667712033,0.000404333404731005,0.000253224541665986,0.00288259843364358,-1.98722730462229,0.018145933907597,-3.12219367263908
1429364553.18897,-0.150340655728895,0.133428775226139,-9.90032781612873,-0.00137611175887287,-0.000207971490453929,0.002298878505826,-1.98723822625334,0.0181378696124369,-3.12220444599945
1429364553.19897,-0.131207436781703,0.153919336199574,-9.7824548854202,-0.00160433002747595,-0.00156064541079104,0.00239627179689705,-1.98723124734012,0.0181343675309201,-3.12220050764537
1429364553.21397,-0.135205694371322,0.165609920123778,-9.79957962322235,-0.00245179096236825,-0.00182497303467244,0.00187700765673071,-1.98722045067239,0.0181293757148053,-3.12218237005338
1429364553.21897,-0.132629359343601,0.187088359623402,-9.83082933248877,0.000645645428448915,-0.00264019030146301,0.00249275006353855,-1.987219719612,0.0181405643261525,-3.12219750357796
1429364553.22897,-0.124696182591002,0.191404670186248,-9.708623341012,-0.000999866519123316,0.000303343287669122,0.00317178014665842,-1.98719666330896,0.0181125619961493,-3.12217405011504
1429364553.24397,-0.151742850677017,0.153512600295898,-9.91387469544411,-0.0013042843202129,0.00102266971953213,0.00060033198678866,-1.98721734817643,0.0180914830513603,-3.12217553334195
1429364553.24897,-0.143351664491231,0.164595372786373,-9.69936509880126,-0.00206199218519032,-0.00151945906691253,0.00183899234980345,-1.9872082878594,0.0180908778439699,-3.1221600879616
1429364553.25897,-0.161618676796835,0.136513653431041,-9.94964977318048,-0.000887870730366558,-0.00562425889074802,0.00161941128317267,-1.98722405928725,0.0181532337109559,-3.12216773404432
1429364553.27397,-0.13809070262257,0.175334190677386,-9.72790964076221,-0.00169067061506212,-0.00120492279529572,0.00214907829649746,-1.98721698875578,0.0181453578955487,-3.12214516951582
1429364553.27897,-0.142775572503172,0.159140322250873,-9.89315690158605,-0.00052254949696362,-0.000566069385968149,0.00144228572025895,-1.9872163901412,0.0181344761083251,-3.12214794018144
1429364553.28897,-0.136430340795452,0.189845257116109,-9.79515479251742,-0.000560059677809477,-0.000758389185648412,0.00227251718752086,-1.9872048156936,0.0181268552181676,-3.12214702045591
1429364553.30397,-0.126995545574557,0.193567419444397,-9.7975647762686,-0.00137277110479772,-0.00257824454456568,0.00229889736510813,-1.98719675498651,0.0181314337037352,-3.12213441075433
1429364553.30897,-0.121258107034257,0.201076078041457,-9.84506244050264,-0.000115781229396816,-0.00288603571243584,0.00180463050492108,-1.98719576312049,0.0181495802473129,-3.12213545692599
1429364553.31897,-0.121475622242456,0.202676389377564,-9.70132500069737,-0.000963270314969122,-0.000969805230852216,0.00151366763748229,-1.98718848865239,0.0181272403377796,-3.1221260969233
1429364553.33397,-0.169147044741362,0.156825524236169,-9.92226726073623,-2.77034196187742e-05,-4.816974978894e-06,0.00277499877847731,-1.98720166628559,0.0181315745797661,-3.12213657325434
1429364553.33897,-0.171240071497858,0.167738675780781,-9.68840180623829,-0.00221407786011696,-0.00202916353009641,0.00352607178501785,-1.98719438251289,0.0181544838881534,-3.12211582901671
1429364553.34897,-0.177619799130224,0.142425188162923,-9.94542017278671,-0.00176028744317591,-0.00327471108175814,0.00271080387756228,-1.98721099626275,0.0181988666535034,-3.12211344601087
1429364553.36897,-0.153001107109804,0.150770480247214,-9.88747417977452,0.000756016001105309,0.00156917050480843,0.000122428071335889,-1.98722885707258,0.0181629421230174,-3.12212694779612
1429364553.37897,-0.147277761026938,0.169973576959688,-9.78555168239176,-0.000435632333392277,0.000984861166216433,0.00335737899877131,-1.98721179975227,0.0181480777781764,-3.12212264156075
1429364553.39897,-0.130448206779081,0.195144569100626,-9.84040263199806,0.00100847857538611,-0.00363163067959249,0.000521621841471642,-1.98720449671581,0.0181870974220372,-3.12212091400358
1429364553.40897,-0.125814519096445,0.187603323408216,-9.67801602130234,0.0004081767401658,0.000283483939711004,0.00136971019674093,-1.98717640126232,0.0181471611476495,-3.12213454426992
1429364553.42397,-0.153032424696675,0.13985708210743,-9.9141131803751,-0.000545383605640382,-9.78604657575488e-05,0.00256237620487809,-1.98718124341804,0.0181485964981463,-3.12215249162617
1429364553.42997,-0.168989388227928,0.159644088788237,-9.6776162083298,-0.00142754183616489,-0.00165424798615277,0.00378786469809711,-1.98717414550543,0.0181573950767991,-3.12213376891361
1429364553.43897,-0.17165575789297,0.13123071719259,-9.94323756805062,-0.00177724973764271,-0.0035436749458313,0.00124116393271834,-1.98719632704554,0.0181984882160944,-3.12213660956088
1429364553.45397,-0.163516235780157,0.164031564891152,-9.71130337387621,-0.000254596874583513,-0.000593760865740478,0.00163729710038751,-1.98720178573925,0.0182068329725444,-3.12213466558308
1429364553.45897,-0.163444558783434,0.145397911230242,-9.89112393445373,-0.000739259063266218,0.00208161678165197,0.0026433146558702,-1.98721560889278,0.0181765061301329,-3.12213557544527
1429364553.46897,-0.149116867821291,0.162072758973576,-9.78756652934551,-0.00232036598026752,0.000647715176455677,0.00217160326428711,-1.98721222817344,0.0181677372314117,-3.12211772251064
1429364553.48397,-0.135759574527573,0.16928669067407,-9.77819372084439,-0.000394466973375529,-0.00181245664134622,0.00295601575635374,-1.9871821717213,0.018159157170595,-3.12212350738351
1429364553.48897,-0.119330335575761,0.17969757351866,-9.84351111940741,-0.00172789464704692,-0.00211459188722074,0.00151912192814052,-1.98718371040218,0.018172494155951,-3.1221212403029
1429364553.49897,-0.121166172700794,0.188269587030914,-9.68533657344878,-0.00107971101533622,0.000452570006018505,0.00291488948278129,-1.98715901889127,0.0181443200175119,-3.12211063863332
1429364553.51397,-0.139629703092342,0.1431576945554,-9.92577322303057,-0.000526638585142791,-0.000468093698145822,0.00113631249405444,-1.98718677948235,0.0181458071154583,-3.12213996398521
1429364553.51897,-0.14642792099826,0.155146503374353,-9.68379635826945,-0.000562639150302857,-0.00192907708697021,0.00133467186242342,-1.98718406697248,0.0181491268416348,-3.12215082500407
1429364553.52897,-0.165075868046004,0.126908278283058,-9.96221699380875,-0.0014924902934581,-0.00370973744429648,0.00306521728634834,-1.98719500309133,0.0181915186343905,-3.12215831540875
1429364553.54397,-0.142256690595066,0.159571096617263,-9.72359002399743,-0.000621109153144062,-0.000979237258434296,0.00170877890195698,-1.98718751214187,0.0181810363174917,-3.12215985378666
1429364553.54897,-0.155025215082243,0.132695300719282,-9.89536990146041,-0.0012401471612975,0.00225255498662591,0.00222990592010319,-1.9871782838863,0.0181492212422552,-3.12216959732685
1429364553.55897,-0.140276613560598,0.155665686676558,-9.80239058898985,-0.000243342583416961,0.000470871629659086,0.00329996924847364,-1.98716614924635,0.0181333166511453,-3.1221823366413
1429364553.57397,-0.120919659726974,0.168141192167066,-9.78134955452681,-0.00130494579207152,-0.00131158775184304,0.00265315640717745,-1.98715367296941,0.0181277931264968,-3.12216415727042
1429364553.57897,-0.109844412955828,0.186192050104495,-9.85646763161421,-0.0012304475530982,-0.0028550666756928,0.00160366285126656,-1.98714356464189,0.0181470762460105,-3.12216030628514
1429364553.58897,-0.107582450240059,0.193850985626131,-9.68540437798798,-0.00081160495756194,0.000804853276349604,0.00042509421473369,-1.98713314888494,0.0181094789530446,-3.12215691221554
1429364553.60397,-0.142215363070834,0.142620071414206,-9.93720997832417,-0.00163281091954559,-6.1292143072933e-05,0.00155616970732808,-1.98713849462034,0.0181119834808006,-3.12216930410013
1429364553.60897,-0.148497128487751,0.150665028845053,-9.69015887903869,-0.00291720731183887,-0.00190558133181185,0.00126203964464366,-1.9871541663214,0.0181245910463503,-3.12214568682736
1429364553.61897,-0.168769388801698,0.127610782262916,-9.93485786224008,-0.00132253614719957,-0.00306802429258823,0.0017766758101061,-1.98718236753476,0.0181675395746388,-3.12214688406641
1429364553.63397,-0.163520637960639,0.160808200664166,-9.75866893616319,-0.000529340701177716,-0.00173949624877423,0.000998612958937883,-1.98719005821599,0.0181810380623776,-3.12214524840371
1429364553.63897,-0.155053984519001,0.145415812213114,-9.84661960681677,-0.000865166541188955,0.00172155373729765,0.00154355319682509,-1.98720163369949,0.0181524300117263,-3.12215149555526
1429364553.64897,-0.162235182993673,0.165207969993073,-9.8303009247005,0.000179734983248636,-0.000511471123900265,0.00191080174408853,-1.9872075011863,0.018146315844597,-3.12217244556282
1429364553.66397,-0.134369024351472,0.186467780039646,-9.74029215247333,-0.00171731424052268,-0.00185837072785944,0.000820298853795975,-1.98720825735285,0.0181479559680206,-3.12215511326394
1429364553.66897,-0.151378054218926,0.188596827957593,-9.8641248683691,-0.000833207916002721,-0.00344424601644278,0.00172643770929426,-1.98721396628103,0.0181803549702928,-3.12214813109578
1429364553.67897,-0.111454734229296,0.202298788236827,-9.67593687694073,9.74595332081662e-06,-0.000457439076853916,0.00205157534219325,-1.98718526095178,0.0181539140842924,-3.12215259687772
1429364553.69397,-0.169704824754596,0.146339859122317,-9.8812186265111,0.00124888028949499,-1.79121852852404e-05,0.00315154367126524,-1.98719702740021,0.0181486142960691,-3.12217952192369
1429364553.69897,-0.139704357497441,0.172207911883015,-9.75013491657376,-0.000508480705320835,-0.00183072756044567,0.00347094237804413,-1.98718484448149,0.0181627519654278,-3.12217836584579
1429364553.70897,-0.172988175540511,0.140684902100544,-9.83483798360825,-0.00154987932182848,-0.00264566205441952,0.00238623539917171,-1.98719651067769,0.0181932634791579,-3.1221808350205
1429364553.72397,-0.165036851209868,0.167742822232936,-9.85872505515218,3.15906108880881e-05,-0.00227815727703273,0.00274083227850497,-1.98720564488329,0.0182178262641827,-3.12219308160668
1429364553.72897,-0.155156695974804,0.149708440506272,-9.73003846948445,-0.00157565192785114,0.000561460736207664,0.00183328508865088,-1.98721118409378,0.0181926592110471,-3.12218287332093
1429364553.73897,-0.174024788579252,0.145831188080972,-9.93782255726457,-0.00110236031468958,0.00110719632357359,0.00233155069872737,-1.98722472419227,0.0181860359196855,-3.12218850807523
1429364553.75397,-0.126082394518703,0.178364023359958,-9.6451466018796,-0.00220426288433373,-0.00117119227070361,0.00140294583979994,-1.98720928116699,0.0181756773781526,-3.12217367842495
1429364553.75897,-0.155428717849217,0.17809517982332,-9.95315924260616,-0.00192324153613299,-0.00213558808900416,0.00102522212546319,-1.98722835173828,0.018199680854747,-3.12216892355222
1429364553.76897,-0.0915984799708705,0.208446004021261,-9.61342284536064,-0.000482035102322698,-0.000456179899629205,0.00157160905655473,-1.98718866454508,0.0181774307848152,-3.12216290173469
1429364553.78397,-0.154810732081346,0.149471325548459,-9.93569139045477,0.000189457598025911,-7.84604053478688e-05,0.00361714116297662,-1.98718876970185,0.0181647063224935,-3.12219770381239
1429364553.78897,-0.126982722625602,0.162647124795429,-9.71742214901745,-0.000965410727076232,-0.00149835296906531,0.00156501901801676,-1.98718260341264,0.0181542302977406,-3.12219214297974
1429364553.79897,-0.155005980658811,0.130192140525626,-9.86624551378488,-0.00270976778119802,-0.00391751155257225,0.00285754655487835,-1.9871785017675,0.018189117676996,-3.12218506512516
1429364553.81897,-0.154380012513883,0.144608687948156,-9.76506185207069,-4.32802517025266e-05,0.00218595727346838,0.00180943892337382,-1.98718309512393,0.0181557650915946,-3.12221544376018
1429364553.82897,-0.168552878240496,0.143406938342424,-9.94072763105631,-0.00220942450687289,-0.000655742827802896,0.000990445143543184,-1.98721650684955,0.0181584641455926,-3.12221616577206
1429364553.84897,-0.143198053965252,0.18068271209849,-9.96817093377709,-0.000824669550638646,-0.00221593771129847,0.00249339290894568,-1.98719202182459,0.0181750153855773,-3.12219534171054
1429364553.85897,-0.085735341824824,0.208324240805116,-9.60727367508113,-0.00171103945467621,-0.000563786132261157,0.00212486903183162,-1.9871499625446,0.0181470698061809,-3.12217686264126
1429364553.87397,-0.138550611751899,0.14653591141738,-9.97786581383943,-0.000888266251422465,-0.000651780457701534,0.000878242892213166,-1.9871782571021,0.0181287387937474,-3.12219262792038
1429364553.87897,-0.119191447694879,0.153099462050898,-9.66351987843811,-0.00127612520009279,-0.00170882034581155,0.00295116193592548,-1.98715979601115,0.0181316010017282,-3.12218371297084
1429364553.88897,-0.166845398469176,0.135646615672391,-9.9496486041367,-0.00248317094519734,-0.00392403407022357,0.00211470667272806,-1.98717755457889,0.0181725107783843,-3.12217968623688
1429364553.90397,-0.149122247249307,0.16275568147013,-9.76237071329057,-0.000257141393376514,-0.0023192202206701,0.00194514752365649,-1.98716725721836,0.0181858763100739,-3.12218883561196
1429364553.90897,-0.174309980462491,0.153301478295866,-9.85105963509083,8.28668198664673e-05,0.00137806055136025,0.00220692087896168,-1.98718548755791,0.0181642751666498,-3.1221963097626
1429364553.91897,-0.162501213518716,0.160070077381656,-9.85789152693748,0.000425847596488893,-0.000950647168792784,0.00109602569136769,-1.98720328235583,0.0181740021051246,-3.12221460814197
1429364553.93397,-0.143048242831556,0.171954430312291,-9.7207124227345,-0.00101335032377392,-0.0014000654919073,0.00201973086223006,-1.98719982661618,0.0181746984043048,-3.1221986375818
1429364553.93897,-0.136447584191198,0.175478987709247,-9.89310780174732,-0.00357870408333838,-0.00281149079091847,0.00235935486853123,-1.987194499645,0.01818704354731,-3.12216741021754
1429364553.94897,-0.100129028961575,0.190734479307104,-9.61960007269084,-0.00316031416878104,-0.000571088341530412,0.00114386272616684,-1.98716459838235,0.0181638062649457,-3.12214162796569
1429364553.96397,-0.146198687952803,0.144297804501234,-9.93335681002736,0.000262164685409516,-0.000817593245301396,0.00012828124454245,-1.98719742727756,0.0181627454516236,-3.12216548864119
1429364553.96897,-0.125118855849328,0.158588022130355,-9.64979647351205,-0.00204609241336584,-0.00127934548072517,0.00145494018215686,-1.98718944555032,0.0181654142674095,-3.12214855144693
1429364553.97897,-0.190204208355304,0.147186283351202,-9.94562358640432,-0.002879235194996,-0.00331796379759908,0.00257131108082831,-1.98720651663992,0.0182120239563905,-3.12214051850027
1429364553.99397,-0.158512655339204,0.189475492221955,-9.73055226422548,-0.000113189445983153,-0.00147285056300461,0.00156413274817169,-1.98719525700024,0.0182251825827748,-3.1221343705669
1429364553.99897,-0.193906533471961,0.175789003506489,-9.87329367873073,-0.00055724399862811,0.00248664314858615,0.00281319580972195,-1.98720755333069,0.0182118046919542,-3.12214161043469
1429364554.00897,-0.168345098975021,0.17587980532879,-9.80294413121939,-0.000596928352024406,0.00098240515217185,0.00213222275488079,-1.98722160282348,0.0181972326020474,-3.1221474736933
1429364554.02397,-0.139321559591778,0.191533867790177,-9.76702584562003,-0.00167911301832646,-0.000877915939781815,0.00302870920859277,-1.98719747997283,0.018198116795286,-3.12212452323137
1429364554.02897,-0.133759925142955,0.195025874624401,-9.83032313653231,4.73870095447637e-05,-0.00161638646386564,0.00333190197125077,-1.98716675151082,0.0182020632147106,-3.12212423492762
1429364554.03897,-0.0779450624079443,0.205436373876501,-9.6903961949259,0.000486139702843502,0.000885420478880405,0.00154610653407872,-1.98713131268836,0.0181502613157278,-3.12212114340312
1429364554.05397,-0.152741204931447,0.157855671001505,-9.85912369908094,0.0019197192741558,-0.00102775706909597,0.00179903290700167,-1.98714565412081,0.018153504935007,-3.1221567756055
1429364554.05897,-0.119596430032887,0.174810495596845,-9.75822820665836,0.0013989043654874,-0.00186598557047546,0.00118671345990151,-1.98713814931102,0.0181469312675478,-3.1221719842104
1429364554.06897,-0.188316695841961,0.15664790264694,-9.85102105664611,-7.83991126809269e-05,-0.00382201443426311,0.00115256384015083,-1.98716824028909,0.0181973112453585,-3.12217067325055
1429364554.08397,-0.163876246465277,0.181487470876425,-9.85885598805547,-0.000302564847515896,-0.00112528679892421,0.00141883152537048,-1.9871713567496,0.0182110788869299,-3.1221752366617
1429364554.08897,-0.1673163952481,0.170487006374542,-9.7876127065748,0.000254200509516522,0.00115938181988895,0.00134590629022568,-1.98718659332767,0.0181889041632633,-3.12218755774376
1429364554.09897,-0.182212004025001,0.158617540485784,-9.91703462077975,0.00134189508389682,0.000592739088460803,0.00016951045836322,-1.98722037301741,0.0181903061049264,-3.12221304857377
1429364554.11397,-0.113072435091622,0.180287922360934,-9.70076093707383,-0.00019890273688361,-0.000162670126883313,0.00193799601402134,-1.98719540983357,0.0181712187056539,-3.1222077095864
1429364554.11897,-0.147450779506285,0.167565419839416,-9.89550200340748,0.000152502907440066,-0.00155652151443064,0.00218128878623247,-1.98719345632307,0.018179697600133,-3.12222012415754
1429364554.12897,-0.0569166727973381,0.187774022066314,-9.6864120937258,-0.000950196059420705,0.00153341051191092,0.00198174430988729,-1.98714188195523,0.0181193557968844,-3.12220847370524
1429364554.14397,-0.13743886025087,0.141414312353637,-9.84255250350833,0.000842490757349879,-0.000260347325820476,0.00191478233318776,-1.98715976893447,0.0181017333949216,-3.12223366174471
1429364554.14897,-0.122254333263682,0.143286983490875,-9.8175431499362,-0.000496434920933098,-0.00168043945450336,0.00239310413599014,-1.98714104762776,0.0180986769649165,-3.12224817247946
1429364554.15897,-0.170501729019638,0.127838754933048,-9.78572879252434,-0.00172740465495735,-0.00360733806155622,0.000690242450218648,-1.98717778819778,0.0181467036758194,-3.12223723114844
1429364554.17397,-0.182942126664147,0.141896232385375,-9.93137294273376,-0.000923551968298852,-0.00283889169804752,0.00130397896282375,-1.98719570803036,0.0181790794372669,-3.12224557411499
1429364554.17897,-0.15880504414821,0.149289904566947,-9.69327964140773,0.000877086888067424,0.00152282195631415,0.000612475152593106,-1.98721303907404,0.0181430698874248,-3.12227027212424
1429364554.18897,-0.195626580463909,0.130527528226143,-9.99342929367423,0.00038371529080905,-0.000213834107853472,0.00232936884276569,-1.9872512222316,0.0181422975755676,-3.12229409310501
1429364554.20397,-0.106307114808308,0.179337142708432,-9.62141735124588,-0.00144680461380631,-0.00167352263815701,0.00322307413443923,-1.98720912729727,0.0181294625974604,-3.12227303146724
1429364554.20897,-0.152586964217806,0.161022208741028,-9.95236779996753,-0.000902615603990853,-0.0025405187625438,0.00296872574836016,-1.98720919691445,0.0181496658537341,-3.12228019058335
1429364554.21897,-0.0759328777687391,0.182896132097952,-9.62602104564905,-0.000260310131125152,-0.00240940088406205,0.00219993945211172,-1.98717442650303,0.0181282399323568,-3.12228880151642
1429364554.23397,-0.141236133641982,0.120830711935041,-9.87908395256996,-0.00158439145889133,-0.000554124359041452,0.0015590637922287,-1.98718992405255,0.0181169647159677,-3.12229761889586
1429364554.23897,-0.117072354915366,0.122236030422011,-9.76010335288048,-0.00206694938242435,-0.00410799775272608,0.000743596639949828,-1.98720106922601,0.0181393183324399,-3.12230319372595
1429364554.24897,-0.161762779708952,0.121677702419506,-9.81683237131834,-0.00147849845234305,-0.00324855139479041,0.00159626989625394,-1.98721793802984,0.0181738509179444,-3.12229981053885
1429364554.26397,-0.173334413428605,0.140785859990679,-9.88883377768993,-0.00172165012918413,-0.00244192685931921,0.00100448867306113,-1.98723351004149,0.0182020489789129,-3.12230372860876
1429364554.26897,-0.162385149390995,0.148318054726953,-9.72179671083987,-0.00097197579452768,0.000184877368155867,0.00242361752316356,-1.98723010472133,0.0181866255125196,-3.12230585197614
1429364554.27897,-0.195428354478069,0.129857593075326,-9.9547269303143,-0.000380263547413051,-0.000177991925738752,0.00208148523233831,-1.98726165566646,0.0181896081061863,-3.12233524555448
1429364554.29397,-0.120611461427482,0.156652323093731,-9.66104851988852,-0.0024277726188302,-0.000571091542951763,0.00282993610017002,-1.98722949944748,0.018168303299679,-3.12232207680904
1429364554.29897,-0.15646858229097,0.144253837495344,-9.92093338178396,-0.00215047877281904,-0.00104657199699432,0.00193446280900389,-1.98723912121679,0.0181738033195734,-3.12230930869982
1429364554.30897,-0.0816187185525429,0.180314280644897,-9.6503096837312,-0.00206845928914845,3.59850819222629e-05,0.000871060008648783,-1.98721097477253,0.0181412647646108,-3.12229255798054
1429364554.32397,-0.158534794105776,0.141203537413478,-9.87741455805302,-0.000466707220766693,-0.000440164207248017,0.00266735209152102,-1.98722295522122,0.018139151436953,-3.12230246297025
1429364554.32897,-0.127386298457813,0.145668617930403,-9.75446622377634,-0.000674580689519644,-0.00256754877045751,0.00296907383017242,-1.98720840356197,0.0181507101604388,-3.12230345569061
1429364554.33897,-0.18080882269619,0.149425559311127,-9.82612626936436,-0.00186750770080835,-0.00203011883422732,0.00188184133730829,-1.98723022146102,0.0181790956446401,-3.12228872372829
1429364554.35397,-0.159566493507382,0.176567312668916,-9.8732270432353,-0.00182226591277868,-0.00256934715434909,0.000544067763257772,-1.98725578974542,0.018197172566581,-3.12226824653583
1429364554.35897,-0.148397476638714,0.175132731554843,-9.73497651040852,-0.00195847149007022,0.0015017957193777,0.00184433744288981,-1.98724888957712,0.0181736157749937,-3.1222445120455
1429364554.36897,-0.16601636376651,0.158303195573296,-9.92744963181019,-0.00190631067380309,7.55247310735285e-05,0.00184256781358272,-1.98725435316927,0.0181493207588149,-3.12224512475696
1429364554.38897,-0.148723658119468,0.18559033961799,-9.89491865056157,-0.000621429062448442,-0.00097780569922179,0.00250302348285913,-1.98723147502784,0.0181291016090859,-3.12221666151986
1429364554.39897,-0.0808741107303183,0.210858417191543,-9.67493792903125,-6.97502036928199e-05,-0.000440183910541236,0.00221178354695439,-1.98717702387646,0.0181004702028377,-3.1222093633699
1429364554.41397,-0.160880370851234,0.167094368261565,-9.86434932477474,0.000517971348017454,2.95613317575771e-05,0.000984185608103871,-1.98720233010311,0.0180915657843864,-3.12221932276848
1429364554.41897,-0.119905623846222,0.170837920437753,-9.78931191170812,-0.000536415202077478,-0.00316075840964913,0.000788192846812308,-1.98720599464906,0.0180979314019757,-3.1222218338542
1429364554.42897,-0.185388241174631,0.16682738788845,-9.81209189879298,-0.00188821065239608,-0.00491551402956247,0.00179843185469508,-1.98723106988009,0.018150967893591,-3.12219485015188
1429364554.44397,-0.153039027967397,0.184020021561347,-9.89390859673619,-0.000466863159090281,-0.00157215632498264,0.00141281704418361,-1.98724078103912,0.0181645299300798,-3.1222044024634
1429364554.44897,-0.158590378484223,0.182126316769235,-9.72363035600781,-0.00107193889562041,0.00202830112539232,0.00124056811910123,-1.98724488660693,0.0181303686609219,-3.12219069704695
1429364554.45897,-0.152278875516169,0.165158778822795,-9.94676340408921,-0.00116444251034409,-0.000904629123397171,0.00265333638526499,-1.98724095508879,0.018122057311094,-3.12219304187225
1429364554.47897,-0.145328727584705,0.173274828728475,-9.92716789225936,0.000381727964850143,-0.00360535923391581,0.00217308290302753,-1.9872018222599,0.0181316746096533,-3.12219078634492
1429364554.48897,-0.0843704649460968,0.192234198079258,-9.67518868892193,-0.000855122809298337,-0.0018617631867528,0.00187597912736237,-1.98717804271006,0.0181221104829793,-3.12218007731342
1429364554.50897,-0.140527501315437,0.155973857576586,-9.77626772121787,-0.000489821832161397,-0.000613356358371675,0.00207238784059882,-1.98718636466239,0.0181136324732037,-3.12220300780167
1429364554.51897,-0.18937552071251,0.155941051285528,-9.8226495331645,-0.00164532428607345,-0.00430184789001942,0.00379283539950848,-1.98719866429866,0.0181685620952339,-3.12218792771737
1429364554.53397,-0.163725129290484,0.16493055955749,-9.88076386848092,-0.00151909154374152,-0.00456078303977847,0.00136864220257849,-1.98720012397779,0.0182068711897776,-3.12219258143299
1429364554.53897,-0.165390834013,0.170393026214465,-9.72115315223932,-0.00123143149539828,-0.000390088825952262,0.00268385466188192,-1.98719933238692,0.0181990950614716,-3.12219560231652
1429364554.54897,-0.181812465047091,0.141416924435832,-9.94686861802936,-0.0002847810392268,0.000798371562268585,0.00215488485991955,-1.98722139053187,0.0181896836132186,-3.12222258921551
1429364554.56397,-0.126556396105466,0.157343611559831,-9.66185574461818,-0.00111166446004063,-0.000192228297237307,0.00259845284745097,-1.98720376069043,0.0181646274444958,-3.12220994748925
1429364554.56897,-0.150780709380284,0.144196526950691,-9.92206735424995,-0.00119739002548158,-0.000732351385522634,0.00184372707735747,-1.98721199611433,0.0181669743378434,-3.12220901570195
1429364554.57897,-0.0866529224606231,0.18756448923517,-9.65952174871266,-0.000932638242375106,-0.00181153323501348,0.00234089815057814,-1.98716949722939,0.0181560545155423,-3.12219282212253
1429364554.59397,-0.142847998418566,0.146786927036382,-9.88069021872282,4.42838827439118e-05,-0.00110176717862487,0.0013820081949234,-1.98717643609408,0.0181459898077134,-3.12221087406831
1429364554.59897,-0.127145292776171,0.152814178836113,-9.75859879353642,0.000463291566120461,-0.00326653569936752,0.00135995890013874,-1.98717900733866,0.0181666345117156,-3.12223204956177
1429364554.60897,-0.186448910942394,0.153276782246027,-9.83796985189319,-0.00166151253506541,-0.003473577555269,0.00141171959694475,-1.98721159950022,0.0181901207247078,-3.12222634804149
1429364554.62397,-0.158367803508416,0.174881441941205,-9.86828081900477,-0.000600107479840517,-0.00379436137154698,0.00150107801891863,-1.98721788421253,0.018223885308555,-3.12222575975815
1429364554.62897,-0.161020327311195,0.178953915544506,-9.74532196333408,-0.00011851594899781,0.00246912473812699,0.00073326617712155,-1.98723333080304,0.0181891114386227,-3.12222584876562
1429364554.63897,-0.167783884895686,0.150494110991247,-9.93192940757275,-0.000325087021337822,0.00158636295236647,0.00277466722764075,-1.98723770323476,0.0181684616258244,-3.12225266634793
1429364554.65397,-0.12415775573221,0.168558084138576,-9.68964216168821,-0.00273376470431685,-0.000957109848968685,0.00129060272593051,-1.98722831858315,0.0181638420853506,-3.12222262560628
1429364554.65897,-0.151373551573744,0.153364898920897,-9.90464041863084,-0.00179701088927686,-0.00344259687699378,0.00358770601451397,-1.98720949326713,0.0181971472987964,-3.12220560190416
1429364554.66897,-0.0911701624230482,0.184076318325847,-9.66847662406266,-0.00115314521826804,-0.000765985110774636,0.00287108845077455,-1.98716006970293,0.0181722839614704,-3.12220614595984
1429364554.68397,-0.151014353739377,0.147615112355677,-9.86255367352963,-0.000469255552161485,-0.000669056491460651,0.00267104851081967,-1.98715765275096,0.0181618424244826,-3.12221667793932
1429364554.68897,-0.109932721426943,0.150968834097218,-9.75775474392772,0.000296091224299744,-0.00189924775622785,0.00224473769776523,-1.98714303469824,0.0181620343952891,-3.122235129579
1429364554.69897,-0.171439101201296,0.159362367503718,-9.81293127222657,-0.00110866210889071,-0.00394027680158615,0.00269534066319466,-1.98715702003101,0.0182078565495975,-3.12222855835319
1429364554.71397,-0.144706613630988,0.172905027301703,-9.85991864885092,-0.000513292849063873,-0.00338013796135783,0.00200883811339736,-1.98715511095203,0.0182350258428811,-3.12224373229356
1429364554.71897,-0.150383526756242,0.167409626489505,-9.72567852070928,0.00107718561775982,-0.000483450625324622,0.000937728444114327,-1.98717044229812,0.0182247270365495,-3.12225719369125
1429364554.72897,-0.161621453275811,0.138067824070482,-9.92282372557521,-0.000769393926020712,0.000855022808536887,0.00114675331860781,-1.98719558691395,0.0182105519478069,-3.12227285342885
1429364554.74397,-0.124774271062203,0.166327658205386,-9.68570540676117,-0.000859480118378997,-0.00041818869067356,0.00189001951366663,-1.98717573091843,0.0182049915077515,-3.12226156331239
1429364554.74897,-0.156056622222904,0.15155633339528,-9.91924878969789,-0.000273822573944926,-0.00198886170983315,0.00213767471723258,-1.98717983404767,0.0182175290435227,-3.12227155327068
1429364554.75897,-0.0959308922851458,0.181804300006945,-9.66896762244999,-0.00079992925748229,0.000246960204094648,0.00116998981684446,-1.98715020834328,0.0181872819950756,-3.12225065025056
1429364554.77397,-0.161161233619228,0.149450492822984,-9.87525767228007,0.000350749207427725,0.00232403189875185,0.00249117217026651,-1.98714532751278,0.0181531144775804,-3.12226729779649
1429364554.77897,-0.11252456455105,0.158222166226339,-9.77017992573678,-0.00166999804787338,-0.000316029298119247,0.00260214763693511,-1.9871368660977,0.0181416102440259,-3.12226661138033
1429364554.78897,-0.163106778196432,0.156417747152876,-9.81819080018997,-0.0027893555816263,-0.00262805633246899,0.00107833184301853,-1.98716378768675,0.0181765588027743,-3.12224911119698
1429364554.80397,-0.134027535703732,0.175275775021035,-9.87652374669313,-0.00158902700059116,-0.0024399736430496,0.00108995696064085,-1.98715933508523,0.0181882106230393,-3.12225552024467
1429364554.80897,-0.140709342422057,0.178991562407464,-9.73656114925146,-6.63785831420682e-05,-0.000662470236420631,0.00109235278796405,-1.98716087794435,0.018176677589822,-3.1222639703796
1429364554.81897,-0.155505655542947,0.148569609202072,-9.94107249897122,-0.00123200728558004,-0.000501488277222961,0.000869619369041175,-1.98717124790115,0.0181660748275729,-3.12226964231847
1429364554.83897,-0.161038392690849,0.153777443510853,-9.93239819412827,-0.00260493438690901,-0.0022097013425082,0.00231915363110602,-1.98716754614949,0.0181780098208246,-3.12224571166258
1429364554.84897,-0.0953156829962507,0.189433607575297,-9.67983154629171,-0.0026547412853688,-0.000889764283783734,0.000873136566951871,-1.98715801426852,0.0181688765128607,-3.12221666074478
1429364554.86397,-0.160885229689442,0.136716071534809,-9.87457962688804,-0.00021226289391052,-0.00104354275390506,0.00192235771100968,-1.9871750604216,0.0181639829044355,-3.12223542216888
1429364554.86897,-0.134084225193877,0.143201725493371,-9.77337024621069,0.000691136345267296,-0.00124698062427342,0.0024807914160192,-1.9871465604407,0.0181593480992671,-3.1222528623994
1429364554.87897,-0.178200960019045,0.159147482644022,-9.81053823961019,-0.00171261955983937,-0.00345063675194979,0.00256468262523413,-1.98716323939256,0.0182035660569215,-3.12223518454492
1429364554.89397,-0.162866704096552,0.18076834455533,-9.86706267538667,-0.00158955925144255,-0.00371301872655749,0.00286343088373542,-1.98715311484314,0.0182341456764962,-3.12222670961202
1429364554.89897,-0.144986955809174,0.187387050309032,-9.72712930403948,-7.14998022885993e-05,-0.000118352894787677,0.00236637843772769,-1.98715222868616,0.0182186410183257,-3.1222330793503
1429364554.90897,-0.184325799574889,0.156492967813555,-9.93524481573105,0.000255654129432514,-0.000769609643612057,0.00176133296918124,-1.98718677165823,0.0182299884402953,-3.12225467656122
1429364554.92897,-0.169908421035297,0.152643562376406,-9.90561773923039,-0.000999297364614904,-0.00315548479557037,0.00318521191366017,-1.98717734019952,0.0182452094014322,-3.12224066984871
1429364554.93897,-0.126642311690096,0.177597386369016,-9.6786701012969,-0.000406283506890759,-0.00164273870177567,0.000504577474202961,-1.98717433192227,0.018245068264382,-3.12223344723434
1429364554.95397,-0.168689583297446,0.145419164080825,-9.85680431622267,-0.00133807153906673,-0.00192153651732951,0.000990394502878189,-1.98719298775765,0.0182604900278422,-3.12223924989513
1429364554.95897,-0.156491707438231,0.159554583873879,-9.77756594433486,-0.00100355758331716,-0.000936287106014788,0.00170930952299386,-1.9872042063526,0.0182554316837232,-3.12223860576009
1429364554.96897,-0.197404038465209,0.162508921901137,-9.80007295969725,-0.0021690740250051,-0.00364175532013178,0.00100943830329925,-1.98723557171746,0.018306546090615,-3.12222152151584
1429364554.98397,-0.186024694180954,0.175094390572142,-9.88972809618115,-0.00124929496087134,-0.00343385082669556,0.00190657540224493,-1.98725701113625,0.0183451414866631,-3.12222342454243
1429364554.98897,-0.17804312084252,0.176340627773572,-9.71317033679187,-0.00222218688577414,0.000643084873445332,0.00152864574920386,-1.98727265794154,0.0183245661392308,-3.12220965279297
1429364554.99897,-0.184027108889259,0.151225676668808,-9.94821886359453,-0.000562690605875105,0.00105638650711626,0.00180352129973471,-1.98729267416163,0.0183152459189095,-3.12223025394125
1429364555.01397,-0.139641028203955,0.163963395025767,-9.68524831064343,-0.000494406616780907,9.3529000878334e-05,0.00100014416966587,-1.98729486200091,0.0182922004434247,-3.12223193716912
1429364555.01897,-0.15225676414906,0.137856464608433,-9.92014193914533,-0.00138009106740355,-0.00263090408407152,0.00161353801377118,-1.98729307861015,0.0183113908034862,-3.12223431747451
1429364555.02897,-0.0985675426653586,0.163319251903333,-9.68082523350418,-0.000901478517334908,-0.000212359533179551,0.00162519502919167,-1.98727274623747,0.0182867023582684,-3.12223050630517
1429364555.04397,-0.142168135528779,0.124853464645101,-9.87332056673765,-0.000104728736914694,-0.000381675257813185,0.00145709491334856,-1.98728184981954,0.0182814438138793,-3.12224431121488
1429364555.04897,-0.114679331432143,0.130330763545027,-9.77336147838235,0.000732205342501402,-0.00121115962974727,0.00113533972762525,-1.9872851730464,0.0182637889366203,-3.12227149104929
1429364555.05897,-0.156094122955389,0.134316444780864,-9.80603449845016,-0.00118677911814302,-0.00160892202984542,0.00200477428734303,-1.98728839770039,0.0182734017946728,-3.12227247545367
1429364555.07397,-0.131519690201804,0.159912895792257,-9.88961937510967,-0.000243028887780383,-0.00226341094821692,0.000644879939500242,-1.98729728253081,0.0182754058379193,-3.12228808866752
1429364555.07897,-0.127480150753725,0.167105620307941,-9.72161141740084,-0.00112981768324971,0.00134833878837526,0.00151071860454977,-1.9872944171983,0.0182419761111608,-3.1222870372797
1429364555.08897,-0.139375381271401,0.134293867622875,-9.94370050938725,0.000156513822730631,0.0016705523012206,0.000627496221568435,-1.98731299145015,0.018207971308306,-3.12231591928172
1429364555.10397,-0.111783290330227,0.154168671318144,-9.68800433135331,-0.00246143946424127,-0.00129230611491948,0.00168186612427235,-1.98730448049231,0.0182027880238083,-3.12230171069238
1429364555.10897,-0.118369874779461,0.142383166518947,-9.91595559337139,-0.00264810584485531,-0.00188846734818071,0.00226739910431206,-1.98729203161609,0.0182063778022203,-3.12228533543272
1429364555.11897,-0.0596791780469241,0.174419121659081,-9.67787164439559,-0.000375382893253118,-0.00149455468636006,0.00154585565906018,-1.98726368829733,0.0181817593975736,-3.12228446961115
1429364555.13397,-0.122913756153639,0.14357979242499,-9.86572762739062,-0.000425086764153093,-0.000151340442243963,0.00117221951950341,-1.98726462056796,0.018165123347735,-3.12228961899526
1429364555.13897,-0.0975329937195405,0.153059267037828,-9.77626713669598,-0.00139851064886898,-0.00334192835725844,0.000577644677832723,-1.98724498772572,0.0181713355680117,-3.12228238971352
1429364555.14897,-0.154647577408887,0.155480137509201,-9.80366718479693,-0.00192736461758614,-0.00442890310660005,0.00120002729818225,-1.98726653169426,0.0182106919719961,-3.12226738144708
1429364555.16397,-0.134668080363283,0.170576383424737,-9.87651790147424,-0.000407285580877215,-0.00379617139697075,0.00134753610473126,-1.98726038797787,0.0182339929713393,-3.12227824363894
1429364555.16897,-0.148783507681079,0.178560258318111,-9.7253313147068,-0.00105005281511694,2.91799660772085e-05,0.00256672385148704,-1.98724701400624,0.0182106232315463,-3.12227381410506
1429364555.17897,-0.153783617523313,0.150468163699238,-9.93262265053391,-0.00217024586163461,-0.000633470830507576,0.00271015707403421,-1.98725134840047,0.0182058675424965,-3.12228370976551
1429364555.19397,-0.129512113239057,0.166383206051216,-9.67749813490808,-0.00260992418043315,-0.000531161087565124,0.00113858573604375,-1.98725424944045,0.0181891228685171,-3.12226123890317
1429364555.19897,-0.172904588910285,0.140960010981187,-9.91067969879508,-0.00242866016924381,-0.00366999092511833,0.000360180623829365,-1.98727856939371,0.0182398570491324,-3.12225805043852
1429364555.20897,-0.117860400020517,0.16592227400858,-9.66370517187715,-0.00222875829786062,-0.00259695248678327,0.00252723530866206,-1.98724618900123,0.0182473663286555,-3.12223222187047
1429364555.22397,-0.183534667463507,0.122453490831284,-9.84199370058179,-0.00150486605707556,-4.96601569466293e-05,0.0037900151219219,-1.98724445747615,0.018235467541373,-3.1222439869333
1429364555.22897,-0.14548422867367,0.127067770560551,-9.76750106191635,-0.000824901158921421,-0.000903435051441193,0.00224807485938072,-1.9872450604113,0.0182362768453146,-3.12224573934006
1429364555.23897,-0.200502515937202,0.147106943637831,-9.78924060003757,-0.00149680557660758,-0.00406552338972688,0.00289538106881082,-1.98725342431601,0.0182899359657083,-3.12222903993867
1429364555.25397,-0.16817485697465,0.183392354649678,-9.87865374445915,-0.00225395802408457,-0.00381864188238978,0.00259799929335713,-1.9872549648894,0.0183350403332116,-3.12220598443396
1429364555.25897,-0.188097591464873,0.218478938665241,-9.70811480696797,-0.00271788402460515,-0.000583485292736441,0.00154536357149482,-1.98727104693606,0.018339366964863,-3.12217173692773
1429364555.26897,-0.192904315893166,0.201688328188285,-9.95556513470411,-0.00122625112999231,0.000540685607120395,0.00172704039141536,-1.98729145523883,0.0183324701730604,-3.1221613430609
1429364555.28397,-0.151511772734346,0.222835380309075,-9.67249755014181,-0.000480250979308039,-0.00108849920798093,0.00303687062114477,-1.98727289797658,0.0183406857385295,-3.12215101217223
1429364555.28897,-0.167852566217724,0.196734669569973,-9.93191421000361,-0.0013490702258423,-0.00221008434891701,0.00117823714390397,-1.98728443350275,0.0183598153012856,-3.12213430130974
1429364555.29897,-0.113411183793005,0.226218958332762,-9.67811071384847,-0.000458591035567224,-0.000970178632996976,0.000369445799151435,-1.98726513374473,0.0183435516293388,-3.12211839346269
1429364555.31397,-0.168814159525186,0.184205442864541,-9.88585388509631,0.00044833161518909,-0.000701246317476034,0.00106724572833627,-1.98726554063656,0.0183405840792716,-3.12212363570907
1429364555.31897,-0.126974265324511,0.19133558700541,-9.76859411785006,-0.000672370253596455,0.000853379373438656,0.00188049068674445,-1.98724646515542,0.018317409232053,-3.1221177336744
1429364555.32897,-0.178278884093463,0.201941389633901,-9.83659856353998,0.000314596691168845,-0.00120188505388796,0.00229183351621032,-1.98725205910174,0.0183444526251454,-3.12211064114568
1429364555.34397,-0.145453605206544,0.210661853439827,-9.88687095318437,0.000649126246571541,-0.00149046175647527,0.00199081934988499,-1.98725016324293,0.0183444548330427,-3.12212027181567
1429364555.34897,-0.144805827088607,0.206531219908502,-9.73591700612902,0.000477068679174408,0.00157926382962614,0.00230279075913131,-1.98724086215049,0.0183131116200326,-3.12212621702123
1429364555.35897,-0.162953542129789,0.166242537205201,-9.94199487451315,0.000725407910067588,0.00121829158160836,0.00219384231604636,-1.98726285871356,0.018287868393945,-3.12215128714102
1429364555.37397,-0.113196216734918,0.180397812476195,-9.6990336748898,-0.000972359965089709,0.000783829134888947,0.00104225380346179,-1.98726030796318,0.0182644989900735,-3.12214044090483
1429364555.37897,-0.146526531667681,0.159041574584134,-9.90364673141837,0.000102946862170938,-0.000813279766589403,0.00274353218264878,-1.98724701833415,0.018282225995166,-3.12214509088753
1429364555.38897,-0.0885188350635115,0.174847904997785,-9.6998157651782,0.00177272723522037,-0.000938349636271596,0.00264421151950955,-1.98722318159825,0.0182617699856027,-3.12216416253477
1429364555.40397,-0.16087620613277,0.141313354463503,-9.8526086180985,0.000327155343256891,-0.00139141641557217,0.00126916298177093,-1.98723862054946,0.0182694593241793,-3.1221756447607
1429364555.40897,-0.123607857631333,0.141076750962343,-9.79225381037891,3.56972777808551e-05,-0.00131360883824527,0.00155598379205912,-1.98722918663376,0.0182518697426116,-3.12218508923383
1429364555.41897,-0.166073354650754,0.150409501447715,-9.79216671661734,-0.00137355586048216,-0.00288740312680602,0.00275838002562523,-1.98723033081077,0.0182705108915926,-3.12218516987231
1429364555.43397,-0.14934017344946,0.1703460818002,-9.89534652058482,-0.000671241781674325,-0.00270820665173233,0.00226739281788468,-1.98723230120411,0.0182872908414478,-3.12219054414237
1429364555.43897,-0.125424085873598,0.181335951842833,-9.71845149206519,-0.000519047724083066,0.00149284466169775,0.000980231096036732,-1.98723449504883,0.0182506167375442,-3.12217835016994
1429364555.44897,-0.135255214335164,0.1515295367199,-9.94231636155248,-0.000638122670352459,0.00119858607649803,0.00313417543657124,-1.9872232818663,0.0182110105372337,-3.12219450629254
1429364555.46397,-0.0894583992022555,0.162517032142356,-9.69508698309064,0.000365351763321087,-0.00117059634067118,0.00170135474763811,-1.98719622927531,0.0181909876493849,-3.12220953911196
1429364555.46897,-0.110644550357573,0.128681041842932,-9.89030326572061,-0.000343576015438884,-0.00140183756593615,0.00165717501658946,-1.98719452533921,0.0181725310876314,-3.12221737066994
1429364555.47897,-0.0198891906969366,0.13768452384132,-9.70677625184059,0.000364085572073236,-0.00138984224759042,0.00119611783884466,-1.98714652835456,0.0181411720130183,-3.12222994857828
1429364555.49897,-0.0606811627302784,0.0995331271613482,-9.79997183741033,-0.000784581585321575,-0.00244564679451287,0.00160078390035778,-1.98708638858022,0.0180665697191063,-3.12228438461494
1429364555.50897,-0.134888399449922,0.0881403936725575,-9.74447206850648,-0.00195197656285018,-0.00746375229209661,0.0018484671600163,-1.98709654993162,0.018140708682174,-3.12229068124345
1429364555.52397,-0.162456424528919,0.101736098832032,-9.91493618719578,-0.00200565508566797,-0.00687405001372099,0.00263470830395818,-1.98710276912023,0.0182116317131852,-3.12229639497658
1429364555.52897,-0.157018653921783,0.131685621353239,-9.68475497416854,-0.00129340193234384,-0.000392321759136394,0.00268524372950196,-1.98710304747604,0.018201466611933,-3.12230190676694
1429364555.53897,-0.202195510525443,0.106857250371203,-9.96861517041325,-0.000680547207593918,0.00156458700075746,0.0029778101015836,-1.98713139561713,0.018178991521574,-3.12232692136384
1429364555.55397,-0.144266359050199,0.150499636549735,-9.66079366834462,-0.00112159887794405,-0.00134769082069397,0.000311264331685379,-1.98714608343885,0.0181782335317179,-3.12231939831487
1429364555.55897,-0.19608084530374,0.136454068730911,-9.92521325106025,-0.00188431167043746,-0.00548999151214957,0.00167318189051002,-1.98717741787296,0.01824931593825,-3.12230496929407
1429364555.56897,-0.170122611775249,0.188568241183925,-9.66663421106636,-0.00145123095717281,-0.00284901005215943,0.00210132636129856,-1.98716833272617,0.0182738729346933,-3.12229165723319
1429364555.58397,-0.231030413735099,0.164762820041459,-9.84428619543314,-0.00172214070335031,-0.000577674363739789,0.00232697720639408,-1.98719854785557,0.0182897885199663,-3.12226722739317
1429364555.58897,-0.218976677320618,0.170974333233759,-9.78914649201334,0.000489909667521715,-0.00121765513904393,0.00310806231573224,-1.98721231604314,0.0183149326815899,-3.12228434550235
1429364555.59897,-0.245117920999508,0.169705829401594,-9.78296984920502,3.87910040444694e-05,-0.00218515726737678,0.00207330123521388,-1.98724399514141,0.0183566913106864,-3.12228823004057
1429364555.61397,-0.254844767102692,0.178711338960286,-9.91898341675997,-0.000760611437726766,-0.0036159623414278,0.00197291071526706,-1.98728415802788,0.0184268717511001,-3.12229121514439
1429364555.61897,-0.219822809288558,0.187463860138599,-9.70205156140625,0.000148548089782707,-0.000924491963814944,0.000428939878474921,-1.98732394927834,0.0184369274573802,-3.12229930447847
1429364555.62897,-0.261979824880697,0.146216287541576,-9.9679266036272,-0.000723574252333492,0.000744980527088046,0.000955473689828068,-1.98739154214655,0.0184512984799316,-3.12230734572167
1429364555.64397,-0.171261570943613,0.153011062248237,-9.68594038456082,-0.000297442020382732,0.00160119368229061,0.00023504692944698,-1.98742020471328,0.0184246895064401,-3.12231139888654
1429364555.64897,-0.16785631081108,0.129888225675607,-9.89973160380125,-0.0026208299677819,-0.000254319922532886,0.00359921134077013,-1.98742291409371,0.0184172441878615,-3.12229606649408
1429364555.65897,-0.10190851452318,0.173338322418742,-9.70825392317772,-0.00180605601053685,0.000356217322405428,0.0024669524282217,-1.98738770555621,0.0183872886633611,-3.12228006875621
1429364555.67397,-0.109884461838426,0.150359004236339,-9.82509984892607,-0.00132729869801551,0.000962011225055903,0.0013926817337051,-1.98739016050661,0.0183493445312711,-3.12228106401654
1429364555.67897,-0.114678153255209,0.159110840428062,-9.7865243268162,-0.00149132788646966,0.000123557751066983,0.00010489812848391,-1.98740139709404,0.0183326176605212,-3.12228100558455
1429364555.68897,-0.113996335870354,0.179786201650184,-9.77803297732472,-0.00229767384007573,-0.00160097633488476,0.00110030209179968,-1.98738626702864,0.0183296500934842,-3.12225758373638
1429364555.70397,-0.127967176218843,0.190045072270837,-9.89868414057493,-0.0024479238782078,-0.00189246702939272,-0.00018297262431588,-1.98739335999334,0.0183340765149755,-3.12224218835355
1429364555.70897,-0.0812572008969262,0.215319214258995,-9.74332991273403,0.000983349978923798,0.000391888170270249,0.00176303973421454,-1.98734832588882,0.0182868504129783,-3.12225475813705
1429364555.71897,-0.11790507941246,0.167929850971326,-9.90486721312404,-0.00102426193188876,0.000731720065232366,0.00194097182247788,-1.98734409738799,0.0182505011480899,-3.12226437598679
1429364555.73397,-0.0859035562648904,0.187902945675608,-9.79541724284589,-0.000784141069743782,-0.0011228215880692,0.00274059968069196,-1.98730734583491,0.0182253660201514,-3.12225453729162
1429364555.73897,-0.0801732050525024,0.161038575353939,-9.8060608019352,-0.00148226192686707,-0.00220616068691015,0.00283134891651571,-1.98726600815677,0.0182221865156217,-3.12224353130797
1429364555.74897,-0.0750670136204455,0.178154928920232,-9.84252678454518,0.000975692877545953,-0.00272802589461207,0.0028886569198221,-1.98721749548492,0.0182127601864324,-3.12224421144578
1429364555.76397,-0.073902632316458,0.166799769229162,-9.70897639223337,-0.000127299048472196,1.42917560879141e-05,0.00220740539953113,-1.98717216589243,0.0181667333086361,-3.12224377039082
1429364555.76897,-0.10391178063699,0.150251954532135,-9.93303181585669,-2.58063846558798e-05,-0.000839740270748734,0.00248084310442209,-1.98715917488119,0.0181489967873672,-3.12226213927706
1429364555.77897,-0.0991576449124608,0.180008429566119,-9.66876128622293,-0.000272546167252585,-0.0039400183595717,0.00248420308344066,-1.98712323751031,0.018155934479652,-3.12225554753486
1429364555.79397,-0.14004142569839,0.163473876209464,-9.97098365311026,5.9001653426094e-05,-0.00684298016130924,0.00151754182297736,-1.98713825670182,0.0182314523644385,-3.12227048579154
1429364555.79897,-0.11804517286974,0.180883714563306,-9.695191027987,-0.000967926695011556,-0.00138270494062454,0.0021526834461838,-1.98712968377485,0.0182136687243479,-3.12226518367895
1429364555.80897,-0.141172292891843,0.121712070479989,-9.90182302312255,-0.00122330361045897,0.000266410643234849,0.00276079284958541,-1.98713485450853,0.0181782913070114,-3.12228776716234
1429364555.82897,-0.135335275567742,0.121370052109286,-9.75821826978624,-0.00222310796380043,-0.00330999307334423,0.00122407544404268,-1.98715338341657,0.0182014735443518,-3.12226587603366
1429364555.83897,-0.135912107341317,0.144339506484801,-9.86613094749451,-0.00186125177424401,-0.00353727443143725,0.000838702719192952,-1.98716430687373,0.0182413399788266,-3.12225806297592
1429364555.85397,-0.159681552988105,0.15378732558405,-9.63117360610664,-0.000759804621338844,0.000867424241732806,0.00099087250418961,-1.98716067111052,0.0182131106780395,-3.12225415735251
1429364555.85897,-0.17481155504277,0.144073832152784,-9.95801661950946,-0.00159795873332769,-0.00134014361537993,0.00206958316266537,-1.98718947784457,0.0182369542435163,-3.12225410175717
1429364555.86897,-0.176994853898603,0.188597211550083,-9.59401204244792,-0.00173777353484184,-0.00220748339779675,0.00177912053186446,-1.98718831679959,0.018259301606756,-3.12223712510183
1429364555.88397,-0.175444774912391,0.174405586324073,-9.99812534253597,-0.0031038923189044,-0.00370456790551543,0.00235184957273304,-1.98720550823131,0.0183053098830944,-3.12221958875684
1429364555.88897,-0.164970544508006,0.198042719961237,-9.62136182166636,-0.000533525366336107,-0.00169434840790927,0.0023903613910079,-1.98720760069243,0.0183206726628636,-3.12221874164331
1429364555.89897,-0.194672896468267,0.140981775288424,-9.95504140309095,-0.000289346498902887,-0.000695429393090308,0.00194970634765923,-1.98723421010817,0.018324318556283,-3.12223243795024
