gps_time,ax,ay,az,roll_rate,pitch_rate,yaw_rate,roll,pitch,yaw
1429448303.89643,-0.127807747873431,0.211249754596688,-9.80729998834133,9.53107373788953e-05,0.00194523064419627,0.00188992673065513,-1.97907929954002,0.0180412991229058,-3.11729725504585
1429448303.91143,-0.103048085612897,0.215479482854623,-9.82452467938661,0.00150113960262388,0.000228127813898027,0.000615614932030439,-1.97907864021821,0.0180241540170201,-3.11732987049344
1429448303.91643,-0.175372568192705,0.220205561528448,-9.75377999507785,-0.000165504970937036,-0.00073470629286021,0.00148994894698262,-1.97908681009672,0.0180295666717067,-3.1173226026134
1429448303.92643,-0.174391667396575,0.215757112485915,-9.93843747429252,-0.00130137463565916,-0.00333416159264743,0.00121599750127643,-1.97910903668445,0.0180717920774437,-3.11732852101417
1429448303.94143,-0.159595482139848,0.22905624585161,-9.68234791302681,-0.00258389371447265,-0.000622789666522294,0.00140245910733938,-1.97910963735368,0.0180684265611798,-3.11730603518767
1429448303.94643,-0.189887306159548,0.189308866950776,-9.96790556083918,-0.000954901042860001,-0.000407466461183503,0.00189205794595182,-1.97913691925497,0.0180788690116052,-3.11732404248272
1429448303.95643,-0.122124231477454,0.20716160850022,-9.68245838766396,-0.00144133542198688,-0.000467234756797552,0.000835488841403276,-1.9791280331119,0.0180595337475393,-3.117313650352
1429448303.97143,-0.166503781957272,0.185270880138967,-9.87551836904287,-0.00224378565326333,-0.0010857000015676,0.00227611628361046,-1.97912845137822,0.0180661587179874,-3.11729921063912
1429448303.97643,-0.0906215155643411,0.222607416772097,-9.73743384043276,-0.00205152365379035,-0.00196940382011235,0.00132230063900352,-1.97909545587901,0.0180597897615613,-3.11728379894401
1429448303.98643,-0.146478582606418,0.207345038775727,-9.78316624855995,-0.00199910998344421,-0.00191444670781493,0.00163325038738549,-1.97908181679727,0.018061706496013,-3.11726615213701
1429448304.00143,-0.126349539288599,0.207722712981701,-9.83672365122437,-0.00174543145112693,-0.00185327022336423,0.00271063996478915,-1.97907355234902,0.0180644138156075,-3.11725903668632
1429448304.00643,-0.180849008576106,0.219980356204137,-9.74668389933705,-0.000470147613668814,-0.00210058060474694,0.000947322230786085,-1.9790897199834,0.018092854572145,-3.11726405360162
1429448304.02243,-0.187878450555168,0.217340363089368,-9.92311598652005,-0.00277876760810614,-0.00253960816189647,0.00155774538870901,-1.97910269963708,0.0181306190389185,-3.11725427621348
1429448304.03143,-0.145931314854044,0.237061181799322,-9.72173416699767,-0.00278795626945794,-0.000577352824620903,0.00224905461072922,-1.97907908791119,0.0181127588057579,-3.11723362071338
1429448304.03643,-0.182644057033025,0.181021058941074,-9.89957845906615,-0.00127891334705055,0.00133176287636161,0.00124658644199371,-1.97911891490684,0.0180968819517357,-3.1172470108121
1429448304.04643,-0.120950922514917,0.190346101044025,-9.76513433278501,-0.000827008567284793,-6.98817893862724e-06,0.000755540037062019,-1.97910049496427,0.0180817171557147,-3.11725947223206
1429448304.06143,-0.161729790754803,0.168912724528834,-9.78871628390253,-0.00191149825695902,-0.000608627567999065,0.00133580015972257,-1.97912597449831,0.0180826168616706,-3.1172479232396
1429448304.06643,-0.101765306660207,0.216502469226811,-9.83875544931293,0.000433079112553969,-0.00163109123241156,0.000455478235380724,-1.97910372246277,0.018083195468515,-3.11725634863944
1429448304.07643,-0.136450579865882,0.217473524482362,-9.68213105540574,-0.00136808608658612,0.000580113963223994,0.000850782380439341,-1.97909252668359,0.0180603866081321,-3.11723448251912
1429448304.09143,-0.140602868106589,0.20705246730363,-9.95649335546493,0.00071253563510254,-0.00180150719825178,0.000887003901880234,-1.97909869524846,0.0180713822994438,-3.11726975179649
1429448304.09643,-0.177451822152175,0.224265047786012,-9.65192062605917,-0.00274942745454609,-0.00296311685815454,0.00128503830637783,-1.97910756632764,0.0181025894297661,-3.11724287649785
1429448304.10643,-0.193359950706176,0.202509270916041,-9.99671664478183,-0.000589515548199415,-0.00419375207275152,0.00109620380681008,-1.97914301973912,0.0181574519304214,-3.11727321259861
1429448304.12143,-0.148085889938893,0.232071228024922,-9.67905296313465,-0.00094112561782822,0.000690718356054276,0.00133222655858845,-1.97913644872597,0.01812824637871,-3.11726064132464
1429448304.12643,-0.168250680423528,0.171218334590085,-9.92533015543818,-0.000465655000880361,-0.000249761244049296,0.00328931235708296,-1.97913664015331,0.0181247542695184,-3.11727362595425
1429448304.13643,-0.108474841635674,0.190142285567615,-9.75381974256635,-0.000356391305103898,-0.000278179708402604,0.00223023118451238,-1.97909898253798,0.0180986812734327,-3.11727967592202
1429448304.15143,-0.144459004678624,0.181032603248395,-9.78766823615432,-0.00118256092537194,-0.00133429630659521,0.00147661520168185,-1.97909550600882,0.0181019221410372,-3.11726507863547
1429448304.15643,-0.100685959591437,0.225890566628613,-9.84206501225233,-0.000500959111377597,-0.00297357654199004,0.000862259010318667,-1.97908165437549,0.0181133976438147,-3.1172626348823
1429448304.16643,-0.127059450256778,0.231973211010545,-9.66722866982818,-0.00169589859433472,-0.000424240191932768,0.000140110423672013,-1.97907574750282,0.0180897810239656,-3.11723937251887
1429448304.18143,-0.140994004582334,0.222862834571581,-9.95824692113399,0.000429693493060768,-0.00158505036961287,0.000857300299685448,-1.97908737907962,0.0180999408763069,-3.11727064712254
1429448304.18643,-0.16377495978158,0.240480123397335,-9.65381389245987,-0.00205748807638884,-0.0012995027936995,0.00113223982043564,-1.97908694297899,0.0181053935023801,-3.1172514926939
1429448304.19643,-0.200304015956726,0.197447092155647,-9.99531963746548,-0.000703702040482312,-0.00316778221167624,0.00132527214009315,-1.97911135821568,0.0181549821439728,-3.11727175625401
1429448304.21143,-0.141393589226017,0.217374959478714,-9.66754138903916,-0.000475739361718297,-0.000257358711678535,0.00226623867638409,-1.97907722561415,0.0181438703454835,-3.11727439256426
1429448304.21643,-0.180825828629918,0.162590316574275,-9.93441245656013,1.26276854643947e-05,0.000487441051518545,0.00172164139803499,-1.97910075929082,0.018134618411531,-3.11729399494375
1429448304.23443,-0.101211079444084,0.175868169689924,-9.73673533677459,-0.00198594178073108,-2.73695331998169e-05,-0.000565816415473819,-1.97909963227922,0.0180925080278539,-3.11727743564976
1429448304.24143,-0.141244243883202,0.176840010396764,-9.79713924433291,-0.00117421557661146,-0.00149608834180981,-0.000123086952953599,-1.97911955723964,0.018096378824732,-3.11727359220219
1429448304.24643,-0.09137095482531,0.228128335618041,-9.8350051568687,-0.000883010681718588,-0.00340948393568397,0.000948924163822085,-1.97909047678732,0.0181054697547827,-3.11726586155775
1429448304.25643,-0.128779186721472,0.235673691229988,-9.67868237625659,0.000750091392546892,0.000254504848271608,0.000925214844755828,-1.97906883423377,0.0180806125179755,-3.11727473521945
1429448304.27143,-0.137384088723175,0.22570762954345,-9.948237568295,0.000419360381783918,-0.00186945172026753,0.00100592384114861,-1.97907823924053,0.0180966809187469,-3.1172906038158
1429448304.27643,-0.176372429417633,0.2396450973453,-9.6594229645133,-0.00203086226247251,-0.00119075435213745,0.00115790392737836,-1.97909903130259,0.018105495086395,-3.11728698260601
1429448304.28643,-0.190024540939461,0.210363345417287,-10.0076752611697,-0.00133038812782615,-0.0031866542994976,0.000770019018091261,-1.97913220707551,0.0181509424206147,-3.1172938906367
1429448304.30143,-0.132956508938735,0.224750895074196,-9.64831295695603,-0.00119806895963848,-0.000644038605969399,0.000465363380499184,-1.97911872468008,0.0181356268910674,-3.11728903368193
1429448304.30643,-0.176313027380593,0.175298607907351,-9.96105379524827,-0.000171392282936722,0.00108426029328257,0.00077581248478964,-1.97913258129217,0.0181220431952721,-3.11730775791679
1429448304.31643,-0.110224644445069,0.182390465864446,-9.71521440984011,-0.000165924735483713,9.6938107162714e-05,0.00108236400410533,-1.97912003234548,0.0181021249612962,-3.11731588258717
1429448304.33643,-0.11121690688543,0.230965367408562,-9.79950246633291,-0.00101429712958634,-0.000893898366484791,0.000649924564640969,-1.97911256008265,0.0181007415653536,-3.11729204956461
1429448304.34643,-0.156136409460846,0.238025076661725,-9.72814286499619,-0.00104511657264084,-0.00022663886193186,0.000506402750033885,-1.97911113501278,0.018091236722403,-3.11728255412343
1429448304.36143,-0.150325385094527,0.230420337279048,-9.91433529869318,-7.86918462836184e-05,-0.00111989490687847,0.000881655549164861,-1.97912779581555,0.0181063736081299,-3.11730244950107
1429448304.36643,-0.178697036440298,0.233133194700629,-9.69031553090513,-0.00116440723650157,-0.000493051542434841,0.000379498727852479,-1.97914006441276,0.0181036490333897,-3.11730248005825
1429448304.37643,-0.201273134983517,0.201607846830599,-9.9768534219265,-0.00216952874325216,-0.00180337717756629,0.00249133398756385,-1.97916129125102,0.0181404493089849,-3.11730391961704
1429448304.39143,-0.135344847113686,0.211026796028391,-9.67376596264243,-0.00139923801179975,-0.000478814181406051,0.00123166968114674,-1.97913732010042,0.0181265117980812,-3.11730012633045
1429448304.39643,-0.155839015683159,0.173010350839701,-9.91795699632168,-0.000464376556919888,0.00200959900394082,0.00203420082107186,-1.979135228763,0.0180985797674989,-3.11730584746543
1429448304.40943,-0.097034433080256,0.189836324890982,-9.74135539779067,-0.000186525576282293,0.00132970791310072,0.00199076463468373,-1.97910326876688,0.0180571372710071,-3.11730720049827
1429448304.42643,-0.105919649860682,0.218547656519897,-9.81388404290676,-0.00045214913552627,-0.00268687610514462,0.00237947888672352,-1.97907429736761,0.0180791291342424,-3.11730678730588
1429448304.43643,-0.151251203835709,0.22805141619062,-9.71104676876664,-0.000793229497503489,0.000821033259853721,0.00196384638547897,-1.97905966010985,0.0180560540417233,-3.11729536430083
1429448304.45643,-0.178787838262599,0.220098466158472,-9.69360580462217,-9.01970634004101e-05,-0.00150027428753674,0.000304172339383513,-1.97910115890036,0.0180714187640213,-3.11733075222473
1429448304.46643,-0.203803895570151,0.190008119527623,-9.94518519498706,-0.00134881108533591,-0.00509812962263823,0.00145375705324113,-1.97911923734297,0.0181318441452349,-3.11733360998565
1429448304.48143,-0.145663786491659,0.214719440001249,-9.72072119056284,-0.000633441144600511,-0.0012007465120405,0.000946259126067162,-1.97911965210248,0.0181331034252191,-3.11733363001634
1429448304.48643,-0.173374398379121,0.163616919675656,-9.8662221329093,-0.00169191684108227,0.00186516274698079,0.000785094161983579,-1.97913104900966,0.0180950344990769,-3.11733278846855
1429448304.49643,-0.106052391128568,0.186657548724394,-9.79770506152212,-0.00163757253903896,0.000810230034403503,0.00106402754317969,-1.97911741261231,0.0180644501463722,-3.11733073066476
1429448304.51343,-0.143631696142163,0.196238556616101,-9.74551134842634,-0.000511863676365465,-0.00234125996939838,0.00187349529005587,-1.97910426709227,0.0180774990209102,-3.1173316238319
1429448304.51643,-0.0871628812767565,0.241866170928255,-9.88179028891921,0.000817621126770973,-0.00311506097204983,0.000418210111092776,-1.97908865463137,0.0180806069851348,-3.11733158508286
1429448304.52643,-0.112219142730534,0.251627485556621,-9.64845499577522,0.00204731244593859,-0.00114966626279056,0.00277151330374181,-1.97905197237146,0.0180746869253932,-3.1173482771032
1429448304.54143,-0.140772151125735,0.21636634869175,-9.9678132063806,0.000829600961878896,-0.00102625298313797,0.00169513083528727,-1.97905471578324,0.0180703514289334,-3.11737545174383
1429448304.54643,-0.149905725777196,0.229275934750587,-9.66952934798598,-0.00297840940766037,-0.00158900825772434,0.00142402423080057,-1.9790581589286,0.0180729071080495,-3.11735351824496
1429448304.55643,-0.19419868481895,0.180327249724325,-9.95325393515229,-0.000800068490207195,-0.00366446538828313,0.00213206303305924,-1.97907999438931,0.0181234079369663,-3.11737846191581
1429448304.57543,-0.182811248559784,0.163347034959402,-9.86526351701021,-0.00249340967275202,0.00263930298388004,0.00135555362794548,-1.97910323749711,0.0180836033403274,-3.11735408506847
1429448304.58643,-0.126130918968702,0.18535123363249,-9.83034417932033,0.000625064130872488,0.000532072561327368,0.00165216939058155,-1.97908726325793,0.0180602573137072,-3.11737778453274
1429448304.60443,-0.150794710506173,0.196537685693149,-9.72841116054356,-0.00116121512837708,-0.000508599798195064,0.00210878602229059,-1.97908232413215,0.0180513283223506,-3.11737179161948
1429448304.61343,-0.130877254979266,0.234073891350534,-9.91154128406048,-0.00205025519244373,-0.00226391013711691,0.0016723619773984,-1.97907567030734,0.0180704508137909,-3.1173560283936
1429448304.61643,-0.104412642831216,0.25869477532804,-9.63851461651921,-0.00114454806316644,-0.00116901518777013,0.00147358293179423,-1.9790437806595,0.0180653675539047,-3.117340305955
1429448304.63143,-0.149113853880297,0.219659362355154,-9.96038510220647,-0.000595628924202174,-0.00129751255735755,0.000763828284107149,-1.97906519785813,0.0180700522189195,-3.11736029123869
1429448304.63643,-0.136940728869848,0.225578103145957,-9.67401672253311,-0.00134922389406711,-0.00230866065248847,0.00187119864858687,-1.97904931371576,0.0180725881364848,-3.11736973938391
1429448304.64643,-0.204772028216254,0.166366236650106,-9.9313881403029,-0.00192438357044011,-0.00246323109604418,0.000231197947869077,-1.9790991393485,0.018123669357691,-3.11737135484586
1429448304.66143,-0.146047789973719,0.19857255252162,-9.75019746041596,-0.00120565551333129,-0.00187743199057877,0.000786265882197767,-1.97908437725919,0.0181297602982335,-3.11735950132216
1429448304.66643,-0.196408141029347,0.167735588774551,-9.83055694528818,-0.000296539219561964,0.000558639469090849,-0.000135710288304836,-1.97911441389328,0.0181184007257106,-3.11736388608598
1429448304.67643,-0.140718740438065,0.194622353591118,-9.84934698595405,-1.14704034785973e-05,-0.000426924263592809,0.000378234515665099,-1.97911226154994,0.0181161932573858,-3.11737536947842
1429448304.69143,-0.166635445512924,0.213268638404738,-9.70193114989698,4.14058667956851e-05,-0.000893104646820575,0.00138235266786069,-1.97911129392493,0.0181193365184651,-3.1173786582738
1429448304.69643,-0.131303234439529,0.246616014070157,-9.91190134954453,-0.00130595883820206,-0.00379395368508995,0.000921331404242665,-1.97909693975595,0.0181482817658691,-3.1173729290543
1429448304.70643,-0.115591048582736,0.265623588210531,-9.61720002581179,0.000158114838995971,-0.00103675038553774,0.00107650912832469,-1.97907916913757,0.0181224504050557,-3.11736621544147
1429448304.72143,-0.146012125005294,0.215934514879435,-9.9709193557024,-0.000232550533837639,-0.00162510550580919,0.000234358871239237,-1.9790946780987,0.0181178997621823,-3.11738967761608
1429448304.72643,-0.125316862639459,0.210643203538284,-9.62890390760898,6.02179534325842e-05,-0.00108239916153252,0.00190515117719769,-1.9790679698291,0.0181076550370662,-3.11741022298105
1429448304.73643,-0.197716428882629,0.167541216979921,-9.98053006461263,-0.00131174048874527,-0.00481407251209021,0.00245481682941318,-1.97910173494715,0.0181670084028343,-3.11741277489865
1429448304.75143,-0.123815052374918,0.192209027105384,-9.69791373094916,-0.00159791950136423,-0.000561904686037451,0.000953244045376778,-1.9790888723124,0.0181484406916643,-3.11740265249532
1429448304.75643,-0.177014910305943,0.170316453846917,-9.89086089960337,0.000754053588025272,0.00199819565750659,0.00184264068957418,-1.9790975158808,0.0181228548833774,-3.11741039131518
1429448304.76643,-0.117250414896011,0.197386338411737,-9.80524071772397,-0.000680659781210124,0.00148488488048315,0.00126105034723878,-1.97909121790876,0.0180904832785057,-3.11740949392425
1429448304.78643,-0.107513796317484,0.246811975033674,-9.87550784764886,-0.00164379144553095,-0.00319069693796337,0.00149571301881224,-1.97907449881177,0.0181088102829599,-3.11736916081213
1429448304.79643,-0.10693722940539,0.25771752779372,-9.6448461576283,-0.00293660303577781,-0.000302717147860676,0.0017878576181829,-1.97904144128854,0.0180846389524583,-3.11733411064062
1429448304.81143,-0.135529985289089,0.22157863997994,-9.98435400681496,-0.000851223943755031,-0.0014280304312706,0.00180889701005071,-1.97905740953129,0.0180899424291841,-3.11734825624957
1429448304.81643,-0.134093340082094,0.208041441808362,-9.62191127224266,-0.000275542464805767,-0.00227549625560641,0.000465515855466947,-1.97905845005244,0.0180924720061778,-3.11736439586816
1429448304.82643,-0.196183447161689,0.177550569818914,-10.0215050490797,-0.0014225720660761,-0.00440632272511721,-0.000468289770651609,-1.97910649420099,0.0181455189284265,-3.11736902104281
1429448304.84143,-0.143115344117861,0.207001157241501,-9.66734674324989,-0.0022431721445173,-0.00194661179557443,0.000246120529482141,-1.97910420058071,0.0181543389753191,-3.11735014612593
1429448304.84643,-0.186239597306959,0.174345216172654,-9.96379871004224,-0.00180453364737332,0.00145154818892479,0.00116703298408538,-1.97913701994275,0.0181267875806635,-3.1173481092162
1429448304.85643,-0.117346851874655,0.189283312384412,-9.73263783832788,-0.00111886393278837,0.000230253848712891,0.00031760724959895,-1.97912363982134,0.0180897582312542,-3.11735130219147
1429448304.87643,-0.0946950942793395,0.230800897561852,-9.79961469453573,-0.000159436749527231,-0.00122797058429569,-0.00031990121351555,-1.9791268234198,0.0180794113797256,-3.11733469921503
1429448304.88643,-0.109131816840218,0.240729093189724,-9.70088427119255,-0.000187132201972418,0.00169218133669347,0.00158821465447545,-1.97908938734281,0.0180322931035446,-3.11732606362619
1429448304.90143,-0.127379156330973,0.228263250576705,-9.90361867436767,0.000696935341693461,-0.000816360348835588,0.000875918893143535,-1.9790997403449,0.0180412508243883,-3.11735699336588
1429448304.90643,-0.135340298802732,0.229446651674993,-9.68291373021603,-0.00157657789532095,-0.00320863910019398,0.0027275902684778,-1.97908005972019,0.0180588651073439,-3.11735054208936
1429448304.91643,-0.205111361439526,0.188637251299527,-9.9525221137464,-0.00163610780145973,-0.00484571373090148,0.00167651160154492,-1.97912614001033,0.0181225807120031,-3.11734973396986
1429448304.93143,-0.163956746089272,0.200883806872368,-9.71767232438624,-0.00288654421456158,-0.000636821147054434,0.00150422868318856,-1.97912754072637,0.0181135477909569,-3.1173389146318
1429448304.93643,-0.228555420190003,0.169904493778851,-9.90564228914976,-0.00209212023764849,0.00183425890281796,0.00119277217891067,-1.97917248650542,0.0181204117844414,-3.11732692701418
1429448304.94643,-0.139425723219151,0.190077568034641,-9.77987831293046,-0.0013174416963011,0.00162145309150219,0.00249584321863949,-1.97915735413734,0.0180891795254176,-3.11731942732864
1429448304.96143,-0.177847433873638,0.199378900468443,-9.77184873573184,-0.00229309615679085,-0.000433599023381248,0.00177396170329303,-1.97916441924549,0.0180926976698023,-3.11729702721109
1429448304.96643,-0.11184031774709,0.231932038749941,-9.84020740168691,-0.000184504417120479,-0.00182647176552564,-3.48791909345891e-05,-1.97916830157525,0.0180942258935241,-3.11731537994528
1429448304.97643,-0.105347722591087,0.249834464660007,-9.66685457581878,-0.00290733180008829,0.000387254025554284,0.000812610727734864,-1.97915451917818,0.0180527148966342,-3.11727484869775
1429448304.99143,-0.121200622959668,0.226816577166039,-9.89535587293506,0.000132399116409943,-0.00045381291420199,-0.00039835344068706,-1.97917427452881,0.0180408753893496,-3.11730108405955
1429448304.99643,-0.132476406404749,0.233389763277583,-9.70187971197069,-0.00156342179980129,-0.00276936125010252,0.000721597345545888,-1.97915988278562,0.0180484508838618,-3.11729943547309
1429448305.00643,-0.198326669735461,0.190151162993815,-9.91237948845029,-0.00279413210228086,-0.0027830246835947,0.00186769373249263,-1.97919012031762,0.0180952194467787,-3.11728288658531
1429448305.02143,-0.154099935197178,0.21611838354636,-9.77341174726486,-0.0014126671012491,-0.00103988731279969,0.00132055196445435,-1.97918399201574,0.0180997276766125,-3.1172729715379
1429448305.02643,-0.205703390782233,0.177652806350682,-9.84604677536488,3.62486352969427e-05,-8.9588895207271e-05,0.000836871797218919,-1.97921243520089,0.0181060678538561,-3.11728952747659
1429448305.03643,-0.152929174384754,0.19631127479244,-9.87123265454769,-0.00013386616774369,0.00180674239527434,0.0011579196434468,-1.979204589253,0.0180808798591921,-3.11729877192544
1429448305.05143,-0.158543598466739,0.212559248026367,-9.69436042238176,-0.000918861012905836,0.00094470358453691,0.00151520187500864,-1.97919359726266,0.0180647376372385,-3.11727918083139
1429448305.05743,-0.114967929982021,0.236067147526983,-9.92683588382602,-0.00086071144323796,-0.00137395749334246,0.000718792958650738,-1.97918514755634,0.0180640129377207,-3.11727624370399
1429448305.06643,-0.0837805362289306,0.255851094601024,-9.60317909924388,-0.000696180271916091,0.000260722619714215,0.00145143456757069,-1.97915167060933,0.0180164244218246,-3.11726958908997
1429448305.08143,-0.121550523242727,0.201156723795924,-9.96220530337095,-0.000778008252382278,-0.00212696916423738,0.00130674592219293,-1.97917090537726,0.0180152323344485,-3.11728530457171
1429448305.08643,-0.114879073521635,0.20841073177848,-9.66059200829267,-0.00196929415687919,-0.00133686035405844,0.000950845482293516,-1.97915517150125,0.0180104513236133,-3.11727947714286
1429448305.09643,-0.204501084054075,0.159953428732045,-9.9531569045186,-0.000989883206784725,-0.00410356093198061,-9.9523960670922e-05,-1.97921698023081,0.0180691272142494,-3.11729296510251
1429448305.11143,-0.155173208718188,0.185351964284852,-9.76822996071279,-5.38563581358176e-05,-0.00127382425125688,0.00178234977647662,-1.9792074145476,0.0180681905517034,-3.11729068323795
1429448305.11643,-0.190543779040594,0.162861315535381,-9.84405823189616,-0.000909856520593166,-0.000373840710381046,0.00106018886435777,-1.97923254685998,0.0180751985793662,-3.11730026665907
1429448305.12643,-0.151526120920107,0.196877676503547,-9.87970003864169,-0.000617040786892176,-2.7149508241564e-05,0.00211228406988084,-1.97923398922905,0.0180555212515282,-3.11732036844503
1429448305.14143,-0.13904115348151,0.222336618740391,-9.69929261808693,-0.00126947264652699,-0.000146500518894754,-0.00113231083378196,-1.97924174125699,0.0180451042378678,-3.11730419004662
1429448305.14743,-0.129999394432502,0.241015545448288,-9.90742391186953,-0.000389505497878417,-0.00277090282179415,0.00177076179534197,-1.97923106797606,0.0180600149649407,-3.11731405258768
1429448305.15643,-0.088455405305326,0.266560832528025,-9.62100584783554,0.000407448707846925,0.000234986713621765,0.00295367953367531,-1.97917367591822,0.0180215404490153,-3.11731158553317
1429448305.17243,-0.147327226191852,0.204348980498593,-9.93437738524675,-0.000931403657887131,-0.000113011948997155,0.00170388864353299,-1.97918509068137,0.0180107282471,-3.11733109160461
1429448305.17743,-0.119169190197298,0.203216560668871,-9.68055635343492,0.00011481288674986,-0.00322362640872598,0.00123829208314419,-1.97918292435016,0.0180280934023075,-3.11734151409779
1429448305.18643,-0.202487753203977,0.150629866200127,-9.90981460639834,0.000835746061056852,-0.00460767652839422,0.00245544058270752,-1.97919824685063,0.0180891714192468,-3.11736973463196
1429448305.20143,-0.164728388048895,0.178695757798664,-9.80425638286173,-0.00217650854028761,-0.00229022419080138,0.000727258622646332,-1.97920694003343,0.0181092260658189,-3.11734837267024
1429448305.20643,-0.188309407584649,0.177852493641246,-9.79385364679098,-0.00316528906114399,0.0016177911311388,-0.000560649379622191,-1.97924379157046,0.0180889282834055,-3.11731526026841
1429448305.21643,-0.159743238313775,0.204443271185923,-9.89666169483662,-0.000418066134443507,-0.00018880600691773,0.000476941524539143,-1.97925879164965,0.0180839118927454,-3.11733662963566
1429448305.23043,-0.139179164579557,0.235468761508726,-9.67964216119945,-0.00197317684069276,-0.00172135967295617,0.00215997966006398,-1.97923900190495,0.0180743337511031,-3.11732574045643
1429448305.23643,-0.12393717178409,0.246712441915646,-9.92246950531006,-0.00224354420788586,-0.00345766241662204,0.00192796590272337,-1.97923030370243,0.018090968463283,-3.11732586053445
1429448305.24943,-0.0802381600474939,0.26882278611064,-9.61922948581278,-0.000618418911471963,-0.000650000351015478,0.00166162149980664,-1.97918588916617,0.0180515523696756,-3.11731640115624
1429448305.26143,-0.146215520356596,0.198093354169931,-9.93750107022524,-0.000485295575344935,-0.00218193419277668,0.000753596075810492,-1.97921091935809,0.0180614493303485,-3.11734062546397
1429448305.26743,-0.127165422248747,0.193838692400139,-9.68695219195187,-0.000665892963297665,-0.00178521976340562,0.000177232446731068,-1.97921211170704,0.0180592651607802,-3.11734899729991
1429448305.27643,-0.199858756407257,0.154694119964354,-9.91193291372657,-0.00186532828956842,-0.00322582246735692,0.00091203156625852,-1.97925104750649,0.0181123630844984,-3.11734475262631
1429448305.29143,-0.142785308445897,0.184978253867943,-9.79941654161513,-0.00124670297373086,-0.00285209226422012,0.000681359553709626,-1.97923359530993,0.0181313701878534,-3.11733793981168
1429448305.29643,-0.188623551567737,0.186084644207265,-9.81074632940292,-0.00203934591263533,0.000237678410485387,0.00197001686319709,-1.97923563868749,0.0181314679388021,-3.11732261888664
1429448305.30643,-0.131449821569677,0.213080440622568,-9.90944168143272,-0.000125020669656806,0.000336336059262976,0.00278078601695597,-1.97920418846375,0.0181165287421999,-3.1173353350505
1429448305.32143,-0.148381913743401,0.242027955627535,-9.66645125571489,-0.00392028968781233,-0.000956005358602852,0.00106901419349015,-1.97919833260788,0.0181059192042541,-3.11729122230009
1429448305.32743,-0.125515161690535,0.253084077573102,-9.96057682538629,-0.000309792085317895,-0.00238767405971885,0.000153741304529831,-1.9791923664229,0.0181327234538978,-3.1173036566658
1429448305.33643,-0.0947781055208295,0.266779315850604,-9.58326151585281,-0.00133581587579101,-0.000141517899464816,-8.041737601161e-05,-1.97917497767059,0.0180976301933308,-3.11728633542625
1429448305.35143,-0.140815067818854,0.204973596936651,-9.98065865942836,-0.00145732727833092,-0.00174009765032679,0.00142086122650653,-1.97917347553103,0.0181073020532634,-3.11729785249535
1429448305.35643,-0.126685264915833,0.196052130665909,-9.62889513978064,-0.00123514211736619,-0.00353542645461857,0.000897309742867947,-1.97916788303642,0.0181271738936997,-3.11730201426091
1429448305.36743,-0.214543900771253,0.158768438464869,-9.97757472193837,-0.000629077665507793,-0.00387758668512106,-7.88104953244328e-05,-1.97921710741173,0.0181857362644058,-3.11731310792717
1429448305.38143,-0.150637556316238,0.191939544247929,-9.71626011950076,0.000619465368799865,-0.000373412505723536,0.000323395564919338,-1.97921090081878,0.0181850075910016,-3.11732426742258
1429448305.38643,-0.189159704271052,0.191152905648574,-9.87329367873073,-0.000726055935956538,0.00246897526085377,0.00183371221646667,-1.97920853803725,0.0181686857207273,-3.11731907484838
1429448305.39643,-0.126523882075353,0.218866458411794,-9.82530560063124,0.00066367129329592,0.00208446732722223,-0.000319222483085468,-1.9792153920975,0.0181272580097135,-3.11732695734121
1429448305.41043,-0.146617433954682,0.230118888380751,-9.74065689413249,-0.000900701794307679,-0.00207957741804421,0.00193872535601258,-1.97920083603817,0.0181383789177294,-3.11733013567983
1429448305.41643,-0.131037066917168,0.23758803695133,-9.8630481790483,-0.000669863075017929,-0.00343614304438233,0.00291301100514829,-1.97917969604862,0.0181525954063155,-3.11733343041417
1429448305.42643,-0.116393944197148,0.258846403959487,-9.67279974795878,-0.000469791091745719,-0.00123738078400493,0.00211549364030361,-1.97915398718972,0.0181435846752418,-3.1173194813942
1429448305.44643,-0.137370973513275,0.200321569879726,-9.71428618907928,-0.00172008294612169,0.000930333160795271,0.000116499919386115,-1.97918666336586,0.0181334976176622,-3.11733974669506
1429448305.45643,-0.213201034794934,0.165274258428626,-9.89411551748514,-0.00215232116170228,-0.00132861151359975,0.000123067016829737,-1.979229054832,0.0181689291773986,-3.11733574877926
1429448305.47143,-0.149090664800955,0.200837940170337,-9.80572294828296,-0.00270145991817117,-0.00132467434741557,0.000594517216086388,-1.97923238850923,0.0181821661932945,-3.11731239745364
1429448305.47643,-0.177611743687931,0.18590791766718,-9.79577204763293,-0.00146583141759038,0.000280704407487065,0.00174099381547421,-1.97922429978121,0.0181763801110061,-3.11731706889602
1429448305.48643,-0.136231448089331,0.207509015432093,-9.89228362588286,-0.000145922196679749,0.00122797000221908,0.0011804822133854,-1.97923720006086,0.0181494006551824,-3.11734016514231
1429448305.50143,-0.135370913136704,0.228907284101285,-9.69872446281016,-0.00197140872478485,-0.000332730094669387,1.70286784850759e-05,-1.97923230666815,0.0181340956866808,-3.11731593595025
1429448305.50643,-0.117746034659538,0.229731478232052,-9.90499697698355,-0.00163288309704512,-0.000870965071953833,0.00200893497094512,-1.9792119612652,0.0181253702923038,-3.11732531295668
1429448305.51643,-0.083944622483151,0.254722382832039,-9.66056979646087,-0.0014590707141906,-2.47164280153811e-05,0.000502989802043885,-1.97917953344032,0.0180943347313664,-3.11730688327
1429448305.53643,-0.129612541406229,0.186472054355964,-9.74785761929154,0.000151225147419609,-0.000913993280846626,0.00218824949115515,-1.97915914288391,0.0180833588788098,-3.11733408315953
1429448305.54743,-0.206615427593235,0.145200443296228,-9.83976433409452,-0.00146750069689006,-0.00235168379731476,0.00155286397784948,-1.97919721261612,0.0181274262966411,-3.1173353130093
1429448305.56143,-0.158577920861449,0.179802202936914,-9.87973510995507,-0.000426437909482047,-0.00091122358571738,0.000954784802161157,-1.97920731355376,0.0181254549077487,-3.11734187585183
1429448305.56643,-0.172841862404998,0.187229777388088,-9.72181249293089,-0.00190325255971402,-1.29364198073745e-05,5.11752587044612e-05,-1.97923235564772,0.0181171050944553,-3.11732435057211
1429448305.57643,-0.145667823345959,0.20184751907168,-9.96292426529527,-0.000740454473998398,-0.000394232629332691,0.000646552187390625,-1.97924138472138,0.0181138080716423,-3.11734217216591
1429448305.59243,-0.145812072388548,0.230568751040101,-9.62318903709352,-0.00113278406206518,-0.000438822025898844,9.18290970730595e-05,-1.9792414275074,0.0181049623380436,-3.11733504998211
1429448305.59643,-0.149503839578573,0.214975570186786,-9.96716438708305,0.000260605302173644,-0.00333863985724747,0.00107982649933547,-1.97924506093719,0.0181380678303002,-3.11734240004348
1429448305.60643,-0.0987889851300046,0.242922383716609,-9.59882090403438,-0.000982142286375165,-0.0010902239009738,0.00166882283519953,-1.97921624006312,0.0181117841186674,-3.11732315824912
1429448305.62143,-0.156752532065194,0.171359460093826,-9.92656349662542,-0.000154157998622395,-0.0013598226942122,0.001772096962668,-1.97923640035023,0.018106940778481,-3.11734495029448
1429448305.62643,-0.124295182308368,0.173483302113693,-9.70194634746611,-0.00058347056619823,-0.00184284802526236,0.00245179398916662,-1.97921775522107,0.0181086882380268,-3.11735525376692
1429448305.63643,-0.197308030744828,0.145579578806926,-9.85955390719175,0.000482701259898022,-0.00253350636921823,0.00209756847470999,-1.97923890894257,0.0181471598234835,-3.11737272306149
1429448305.65243,-0.167200349386688,0.202690655364934,-9.83440076123476,-0.000309287454001606,-0.00317340902984142,0.0017895232886076,-1.97923237237048,0.0181748740602937,-3.11737795911651
1429448305.65643,-0.175404278505221,0.223648925181665,-9.74408686858117,-0.00114619627129287,0.00193357467651367,0.00133842800278217,-1.97922578063477,0.0181420335422371,-3.11735843026557
1429448305.66643,-0.157446067287307,0.218623991425429,-9.92233389623165,-0.000205337215447798,-0.000676182447932661,-7.86964665167034e-05,-1.97925211726175,0.0181413264375374,-3.11738120466525
1429448305.68143,-0.132065514915762,0.249993363282457,-9.66679612362981,-0.00241663330234587,-0.00106299575418234,0.00101980881299824,-1.97923885859054,0.0181355609998792,-3.11735889756437
1429448305.68643,-0.149878125384217,0.221093011887465,-9.91341526123881,-0.00183041370473802,-0.00416344869881868,0.0013244217261672,-1.97925335842904,0.018173973944333,-3.11736078164911
1429448305.69643,-0.0925109917059075,0.243722758580372,-9.66632558350861,-0.00214931601658463,-0.00232255831360817,0.00223881867714226,-1.97921461654002,0.0181597626449406,-3.11733576169992
1429448305.71143,-0.148619010434905,0.179777762615401,-9.86285645586848,-0.00155937077943236,0.000578410341404378,0.00027451483765617,-1.97923146135353,0.0181350122171386,-3.11733351078991
1429448305.71643,-0.112033310435386,0.189878940190002,-9.77913129395544,-0.00172959407791495,-0.00152865878771991,0.0019157036440447,-1.97920196057356,0.0181356142103306,-3.11732644510698
1429448305.72643,-0.17229517004136,0.180182598822936,-9.81139164156914,-0.00246502785012126,-0.00268380949273705,0.00234917551279068,-1.9792023627716,0.0181579929966511,-3.1173018724929
1429448305.74143,-0.13514566214662,0.228922463404108,-9.8964641264379,-0.00178847776260227,-0.00179024413228035,0.00175493187271059,-1.97919223879619,0.0181648293501312,-3.11729209287313
1429448305.74743,-0.141882103395322,0.253555147417262,-9.72339713177383,-0.000812068115919828,0.00058670062571764,0.000930677400901914,-1.97918470780323,0.0181450189917056,-3.11728109534512
1429448305.75743,-0.137670760177448,0.246904603486881,-9.94691304169297,-0.00045541999861598,0.0010178453521803,0.00139401108026505,-1.97918046445645,0.0181222980071882,-3.11729346899766
1429448305.77643,-0.137327253102558,0.223289864344615,-9.89716204557419,-0.000602556217927486,-0.00326500437222421,0.00126932200510055,-1.97916420496088,0.0181012422886126,-3.11729205323462
1429448305.78643,-0.0745977201748406,0.257067539452389,-9.72288976677358,-0.000636757933534682,-0.0019949241541326,0.00136552832555026,-1.97911839181069,0.018092606529013,-3.11727500795533
1429448305.80143,-0.161440306288935,0.200129262178019,-9.81994085872769,-0.000561644032131881,-0.000650534988380969,0.00188057834748179,-1.97912263145504,0.0180850564423225,-3.11726558052749
1429448305.81043,-0.117434831552207,0.190014311806392,-9.84504022867083,0.000888189242687076,-0.000112726120278239,0.000851981865707785,-1.97911419613559,0.0180746922849787,-3.1172919050944
1429448305.81643,-0.210721018014848,0.187041104681883,-9.75315221856832,-0.00125999317970127,-0.00270634773187339,0.00140763854142278,-1.97913844482455,0.0181239291933107,-3.11727093022218
1429448305.83143,-0.159467891971115,0.219173442001734,-9.95725440296531,-0.00140017934609205,-0.00369911501184106,-0.000690701475832611,-1.97916060345157,0.0181565562372621,-3.11726380499296
1429448305.83643,-0.164484404958878,0.246611557090748,-9.65844389034808,-0.00131274538580328,-0.00132684037089348,0.000450555060524493,-1.97915775617523,0.0181570016293932,-3.11724928576909
1429448305.84643,-0.168199242497236,0.220564001310989,-10.0096906926453,0.000305317953461781,-0.000164098659297451,0.000948391505517066,-1.97917786323583,0.0181497184514859,-3.11728382658285
1429448305.86143,-0.129706137973815,0.235608297843579,-9.61703168350756,-0.00107059872243553,0.000584006542339921,0.00135653163306415,-1.97915283688396,0.0181154174289093,-3.11727133712017
1429448305.86643,-0.157853899169527,0.191459085520916,-9.95858594383001,-0.00099905370734632,-0.00124431622680277,0.000310871284455061,-1.97916486048696,0.0181225421903995,-3.1172833133787
1429448305.87643,-0.0801883569558617,0.216190919059608,-9.63394307081997,0.000676225929055363,-0.00150781730189919,0.00202643708325922,-1.97911351487264,0.0181051213162657,-3.11728641679584
1429448305.89643,-0.117971468312712,0.175025855380576,-9.76567384648919,-0.000254014797974378,-0.0022927881218493,0.00156567862723023,-1.9791012358985,0.0181279961058891,-3.11731603321185
1429448305.90643,-0.217688518939912,0.190793278555945,-9.79880922337174,-0.00179025740362704,-0.00422707851976156,0.00136983266565949,-1.97913346028345,0.0181848292742973,-3.11730229682338
1429448305.92143,-0.177798260969669,0.229884001912642,-9.90577205300927,-0.000543369969818741,-0.00326580693945289,0.00177980831358582,-1.9791406505269,0.0182228815829212,-3.11730358815467
1429448305.92643,-0.194469354986493,0.246247692214418,-9.69305635404587,-0.00095898297149688,0.000786125252489001,0.0013613902265206,-1.97915613467562,0.0182029560597926,-3.11729616959639
1429448305.93643,-0.16887191759441,0.232128127577621,-9.97459015316963,-0.000882233609445393,0.00184880453161895,0.000442903576185927,-1.97919175428234,0.0181791864173528,-3.11730903395534
1429448305.95143,-0.135634788237279,0.241229042068496,-9.62467430721521,-0.000992215820588171,0.000173929729498923,0.00259868963621557,-1.97915631212546,0.0181494130360801,-3.11730271212557
1429448305.95643,-0.163259959464148,0.201728934193309,-9.96237949089408,-0.00130119046662003,-0.00308226235210896,0.00255730282515287,-1.97915918589009,0.018185996456525,-3.1173147896833
1429448305.96643,-0.0927840273604728,0.221822623069957,-9.59820014178753,-0.000187614379683509,-0.00197301246225834,0.00116702099330723,-1.97912598766037,0.0181769849690432,-3.11731750340555
1429448305.98643,-0.109525976390112,0.179015966196358,-9.69982979370356,-3.27887391904369e-05,-0.000226288713747635,0.0011739298934117,-1.97912757990428,0.0181468173415078,-3.11734377169462
1429448305.99643,-0.190883057464939,0.170452373452578,-9.87121628793478,-0.000781790004111826,-0.00318263028748333,0.00231903302483261,-1.97914421955324,0.0181833379500801,-3.11733836265628
1429448306.01143,-0.142160701140994,0.204785782746971,-9.82067384917736,-0.00158884353004396,-0.00225538806989789,0.000920562073588371,-1.97915700965152,0.0182099594440943,-3.1173475311747
1429448306.01643,-0.169109306546859,0.213869709570426,-9.77283482415974,-0.00200598128139973,-9.44036582950503e-05,0.000819311826489866,-1.97916181609684,0.0182019491936244,-3.11733448827523
1429448306.02643,-0.144774847428454,0.205601592641883,-9.90497359610796,0.00136140442918986,2.42182286456227e-05,0.00164023810066283,-1.97916292535987,0.0181886240404953,-3.11738110734914
1429448306.04143,-0.126903729972104,0.210093625097815,-9.69476666509509,-0.0011639108415693,0.00186468567699194,0.00231463857926428,-1.97915036327569,0.0181452752978756,-3.11737477755125
1429448306.04643,-0.15099954889589,0.184239728726633,-9.90358944827318,-0.00211240304633975,-0.00104681623633951,0.00165216077584773,-1.97916687422405,0.018151971540514,-3.11737021950616
1429448306.05643,-0.0971028586739674,0.213531326195225,-9.69345324440896,-0.00194271665532142,-0.00034550647251308,0.00334648252464831,-1.97911961522377,0.018129772282997,-3.11736185148586
1429448306.07143,-0.165680154082086,0.166968860452063,-9.84961703506708,-8.47084957058541e-05,-0.000831661222036928,0.00173598970286548,-1.97913121586629,0.0181321503480636,-3.1173754211671
1429448306.07643,-0.111841139730997,0.171526414158568,-9.79327672368586,-0.000155027359141968,-0.00100146629847586,0.00241753831505775,-1.9791009735582,0.0181221752733792,-3.11740056802251
1429448306.08643,-0.198983891535178,0.165547504145745,-9.80495313295424,-0.00292153423652053,-0.00297530577518046,-2.60130491369637e-05,-1.97913751377994,0.0181620737806079,-3.11738407759899
1429448306.10143,-0.140262265374837,0.196767950785067,-9.88904303652644,-0.00133091781754047,-0.00306298886425793,0.000668261607643217,-1.97914403818573,0.0181784736062627,-3.11737049421274
1429448306.11143,-0.160764178859349,0.216748479877133,-9.72350117667019,-0.00213398155756295,0.000549098011106253,0.000122195415315218,-1.97914820237659,0.0181584378752056,-3.11735436243601
1429448306.11643,-0.144256193849212,0.203657399771549,-9.93848189795613,-0.000811205070931464,-4.75893612019718e-05,0.00126149458810687,-1.97914952719815,0.0181538740362485,-3.11737066514659
1429448306.13143,-0.120791539835278,0.225960289130267,-9.69499755124152,-8.51022741699126e-06,-0.000196103326743469,0.00206068460829556,-1.97912264058024,0.0181320608771207,-3.117381477636
1429448306.13743,-0.154122969012894,0.196407976632565,-9.88550784813762,-0.0011614499380812,-0.00134035653900355,0.00150934408884495,-1.97913089185314,0.0181391327843656,-3.11737821009679
1429448306.14643,-0.0907776742404327,0.226915927620977,-9.72541022516191,-0.00108132662717253,-0.000424621161073446,0.00069541810080409,-1.97910381164995,0.0181156947174666,-3.11736172558178
1429448306.16143,-0.166731909891032,0.177755371676013,-9.80351228649616,-0.000322813342791051,-0.00109420449007303,0.00114988710265607,-1.97912822220013,0.0181195258028378,-3.11736023881606
1429448306.16643,-0.120588920802111,0.178015483916923,-9.84028572762012,-0.000991525128483772,-0.00175600766669959,0.00160412932746112,-1.97910573939306,0.0181171340709087,-3.11736842144303
1429448306.17643,-0.204752026607841,0.184521979734115,-9.73308908922672,-0.00160355446860194,-0.00298145599663258,0.000908813497517258,-1.97913174635779,0.0181567144391218,-3.11736815853015
1429448306.19143,-0.177783684455045,0.211344154881872,-9.9552541690588,-0.00232926616445184,-0.001145722810179,0.00285677029751241,-1.9791322498834,0.0181860685881725,-3.1173568109107
1429448306.19643,-0.166492475111969,0.233231668372732,-9.65661901300848,-0.00203676568344235,0.00186728243716061,0.00198271265253425,-1.97912651917073,0.0181515202361785,-3.11734986453214
1429448306.20643,-0.181377544228546,0.20242849729741,-9.98152492086887,-0.000737496127840132,0.00173068779986352,0.000194385691429488,-1.97917428033192,0.0181376663857877,-3.1173767430982
1429448306.22143,-0.125162658458436,0.222747976020258,-9.65529857805967,-0.000927308283280581,0.000148581195389852,0.00218089576810598,-1.97915649262655,0.0181207702215903,-3.11736531776079
1429448306.23143,-0.162691731122136,0.176664434634149,-9.90244612345695,-0.00277654244564474,-0.00376431364566088,0.00178714946378022,-1.97918029694703,0.018155193922093,-3.11736327698361
1429448306.23643,-0.0940440921578556,0.211661568534281,-9.70289736458063,-0.000699119700584561,-6.01704814471304e-05,0.00159354298375547,-1.97915444215379,0.0181158494312602,-3.11736241847543
1429448306.25143,-0.158562321433518,0.165171419108659,-9.80323463859856,-0.000679481716360897,0.000839664833620191,0.000751179992221296,-1.97916223961795,0.0180986386891681,-3.11736803763178
1429448306.25643,-0.123387173218513,0.17897620044155,-9.84355320498347,-0.000501941656693816,-0.00300790998153389,0.00056401698384434,-1.97915640878234,0.0181198040790679,-3.11738054290837
1429448306.26643,-0.181946795483865,0.199984172885213,-9.73568495093882,-0.00269541307352483,-0.00244249100796878,0.00261641433462501,-1.97914747758405,0.0181458578896524,-3.1173561963849
1429448306.28143,-0.176981501226686,0.22842974798372,-9.95172716397643,-0.00110019382555038,-0.00232460349798203,0.00179834966547787,-1.97914534141669,0.0181683142916876,-3.11735845465271
1429448306.28643,-0.15309526993297,0.256987459953502,-9.67906582261622,-0.00106650160159916,0.000785087875556201,0.000549905118532479,-1.97914287460478,0.0181461163631776,-3.117352168625
1429448306.29743,-0.172148290650267,0.205134267391078,-9.95411552041769,-0.000379601609893143,0.00169714959338307,0.00075641623698175,-1.97917109577762,0.0181165253104605,-3.11736932832037
1429448306.31243,-0.117563179772766,0.212575559840351,-9.69413304336667,-0.00319983391091228,-2.25277035497129e-05,0.00197031907737255,-1.97914206639868,0.0181027982811673,-3.11734388608471
1429448306.31743,-0.151508676594961,0.167514986560121,-9.86594156240225,-0.00283660250715911,-0.00227431231178343,0.00149057223461568,-1.97915379967113,0.0181174946459828,-3.1173298247327
1429448306.32643,-0.0858641741025727,0.202192240856122,-9.75308324498534,-0.00117360230069607,-0.00246944557875395,0.00259766587987542,-1.97909223369845,0.018115318414225,-3.11731277547311
1429448306.34143,-0.135038365847245,0.186644086454622,-9.76521733489334,-0.000232047503232025,0.000602813670411706,0.00189851981122047,-1.97907745149857,0.0180782134682203,-3.11731059008408
1429448306.34643,-0.110156684642239,0.203438806851115,-9.8891926741302,-0.000766769691836089,-0.00104549014940858,0.00148208695463836,-1.97905885786083,0.0180720846343374,-3.11731603155077
1429448306.35643,-0.149376194610912,0.223044803542364,-9.71645359624624,-0.00246270257048309,-0.00198841863311827,0.00238469429314137,-1.97904162472131,0.0180827412066927,-3.11728918866394
1429448306.37143,-0.154658537194319,0.23098277520109,-9.9663285207808,-0.00140133977402002,-0.00302053848281503,0.00112985097803175,-1.9790621305559,0.0181172752842054,-3.11729570365456
1429448306.37643,-0.146892542835325,0.26006248348467,-9.69507587717473,-0.000610712799243629,-0.00105069146957248,0.00206560525111854,-1.97905547680619,0.0181135178271468,-3.11729715716552
1429448306.38643,-0.173971907614544,0.214047879148927,-9.95260511585474,-0.000154926703544334,-0.000402011530240998,0.000786304823122919,-1.97908156546614,0.018110491428552,-3.1173077041373
1429448306.40143,-0.125137971541751,0.223579568006191,-9.71881097302735,-0.000271937402430922,-0.000146073929499835,0.00203728955239058,-1.97907002823202,0.0180834110573993,-3.11730477030214
1429448306.40643,-0.159541486930288,0.188995526685286,-9.85045173232555,-0.00244323723018169,-0.00283453054726124,0.00181725446600467,-1.97906349484981,0.0181129232922709,-3.11728711498248
1429448306.41643,-0.10093986128727,0.223724565967452,-9.79059318369031,-0.00199112948030233,-0.00276356050744653,0.000819831271655858,-1.97903780326329,0.0181191374626271,-3.11726246220907
1429448306.43643,-0.131271387129696,0.222661448514275,-9.91416111117005,-0.00037994742160663,-0.00261558103375137,0.00101833883672953,-1.97902248908955,0.0181113672360895,-3.11726630396396
1429448306.45043,-0.175884225775581,0.241236622586753,-9.6660596260488,-0.00255506625398993,-0.00261903647333384,0.000736109330318868,-1.97902886602733,0.0181309196251927,-3.11724420548904
1429448306.46143,-0.170392916616611,0.247759010092821,-9.9997842156589,-0.000185253142262809,-0.00192168040666729,0.00116228952538222,-1.97905036841507,0.0181548090947545,-3.11725535527091
1429448306.46643,-0.160012739437539,0.257892007577792,-9.61282020329237,-0.00155140168499202,-0.000125837221276015,0.000844399444758892,-1.97904165136651,0.0181427964911055,-3.1172442179581
1429448306.47643,-0.18789383078739,0.197942163929902,-10.0165553177178,-0.000293488148599863,-0.000176170258782804,0.000979957403615117,-1.97908385435494,0.0181484600597187,-3.11727130567342
1429448306.49143,-0.144380697011715,0.212317803953309,-9.62434288330376,-0.000588599126785994,-0.000189881102414802,0.00128252652939409,-1.97906585158615,0.0181360478788496,-3.11726029788228
1429448306.49643,-0.17739464860484,0.18364028326245,-9.9197865498364,0.000443362252553925,-0.00189364422112703,0.00272978912107646,-1.97905944706239,0.0181570872145878,-3.11727884308428
1429448306.50743,-0.0998940328956116,0.217044211420696,-9.68561246778071,0.000519149238243699,-0.00034191133454442,0.00194135343190283,-1.9790231397639,0.0181333896425403,-3.11728001293767
1429448306.52143,-0.159702321781497,0.197689668739866,-9.80816157360673,0.000155548157636076,-0.00167775782756507,0.00194671656936407,-1.9790215097958,0.018129641911272,-3.11727763399986
1429448306.52643,-0.110429729429958,0.204659854812361,-9.81610639513135,-0.000380974204745144,-0.00244501256383955,0.00177836522925645,-1.97902018701642,0.0181333983564797,-3.11727900796248
1429448306.53743,-0.198365175114945,0.216643375534844,-9.74771791855991,-0.00191453250590712,-0.00272840890102088,0.00105149822775275,-1.97904553588534,0.0181609965312664,-3.1172631534634
1429448306.55143,-0.170177812561207,0.232989493647311,-9.94649803115129,-0.00192755390889943,-0.00373113667592406,0.00116849131882191,-1.97906153872191,0.0182083295776881,-3.11725682087495
1429448306.55643,-0.157935092913266,0.236173439179361,-9.6705487541616,-0.000211252961889841,0.00108916009776294,0.000632485025562346,-1.97905968309987,0.018175123894207,-3.11726315808295
1429448306.56643,-0.158597356214281,0.191449002518319,-9.99210710515976,-0.00011526390153449,0.0014801180223003,0.000401523866457865,-1.97908481493224,0.0181476779366415,-3.11728137194909
1429448306.58143,-0.106911209048145,0.195938185430039,-9.66028981047571,-0.00151016272138804,0.000215474545257166,0.000970744644291699,-1.97906595879054,0.0181118646265636,-3.11728020342311
1429448306.58643,-0.140993465726217,0.167749818229303,-9.92395302186608,-0.0015900848666206,-0.00162211584392935,0.00228160270489752,-1.9790539744064,0.0181092379230644,-3.11728614460776
1429448306.59743,-0.0703198967251694,0.205076491055544,-9.6901980420053,-0.00226015690714121,-0.00142361829057336,0.00166016176808625,-1.97901229003981,0.018090752089182,-3.11726636197369
1429448306.61043,-0.142566249734582,0.182243860467989,-9.83515713256001,8.13929800642654e-05,0.000948896806221455,0.000921473663765937,-1.97901792418253,0.0180615541847042,-3.11728005016659
1429448306.61643,-0.0939904074755497,0.190357681883965,-9.81524831699729,-0.000320224673487246,-0.000802617461886257,0.00110812811180949,-1.97900584569628,0.0180479662766544,-3.11729394148731
1429448306.62743,-0.181510212431196,0.197259369297512,-9.78231401564479,-0.00120893015991896,-0.00149086595047265,0.00243868213146925,-1.97900564946205,0.0180692377694142,-3.1172860170561
1429448306.64143,-0.162414338952862,0.200810029250104,-9.91300726495981,-0.00164526468142867,-0.0032924001570791,0.0016628255834803,-1.97901932644659,0.0181043706233884,-3.11729873957725
1429448306.64643,-0.162013649197482,0.22099592645485,-9.73934230440259,-0.00104912428651005,-0.000797787448391318,0.0016076056053862,-1.97902087331719,0.0180993700765499,-3.11729120539419
1429448306.65643,-0.177114059831481,0.172753690931201,-9.90262966333032,8.66452828631736e-05,0.00110892916563898,0.00260276324115694,-1.97904094446959,0.0180851176028306,-3.11732356743691
1429448306.67143,-0.117485995483864,0.195890327700321,-9.75335563218593,-0.000956930452957749,-5.50371951248962e-05,0.00185681262519211,-1.97903387151589,0.0180613870322511,-3.1173362567566
1429448306.67643,-0.158837119786907,0.163676339979004,-9.8125045712471,-0.00251085334457457,-0.00211102887988091,0.00282470253296196,-1.97903902748705,0.0180725835953092,-3.11732519631738
1429448306.68643,-0.0742932801684365,0.193447647255938,-9.80736077861786,-0.00170600775163621,-0.00185357255395502,0.00177917873952538,-1.9789998773943,0.0180648600183892,-3.11731870043182
1429448306.70143,-0.148138158982247,0.175875841539726,-9.70279565777182,-0.00129077886231244,-0.00109396129846573,0.000411082990467548,-1.97901773281243,0.0180570380006292,-3.11732277483145
1429448306.70943,-0.129693159761233,0.179596944422089,-9.92489059497714,0.000342475163051859,-0.00163951562717557,0.00125643820501864,-1.97902433731825,0.0180648579910263,-3.1173433796391
1429448306.71643,-0.191639958513156,0.201949061483704,-9.66709773692489,-0.00246215215884149,-0.00236661266535521,0.00154574739281088,-1.97904598016716,0.0181013405978781,-3.11732800093882
1429448306.73143,-0.195364586793166,0.190536929174699,-9.99114965830445,-0.000699392752721906,-0.00272706197574735,0.00248880917206407,-1.97907198440573,0.0181301318079133,-3.11734605901892
1429448306.73643,-0.165244922736287,0.220437708050199,-9.65984206670821,-0.00214880937710404,-0.000163320801220834,0.00215219520032406,-1.97906129627555,0.0181244130097903,-3.11733761194184
1429448306.74643,-0.204667307466455,0.166698062420357,-9.96622798301578,-0.000973552523646504,0.000226340984227136,0.000906225934159011,-1.97910626405988,0.0181334597200854,-3.11735295765661
1429448306.76143,-0.135767191578448,0.186940402520075,-9.70564403294027,-0.00190147804096341,0.000851394492201507,0.000541472691111267,-1.97910734574874,0.0181061585159593,-3.11734470244875
1429448306.76643,-0.18357666170802,0.163892814007588,-9.8280902629137,-0.00165946665219963,-0.00156740285456181,0.000597689009737223,-1.97913392206005,0.0181209102104771,-3.11734143223915
1429448306.77643,-0.114615974739194,0.218438807584252,-9.80783657943606,-0.0033884858712554,-0.000996765913441777,0.00230133417062461,-1.97909084027862,0.0181196603080217,-3.11730335756442
1429448306.79143,-0.142881955487095,0.21672250518566,-9.69618588424325,-0.00187615398317575,0.000481533934362233,0.00195407890714705,-1.97907911848595,0.0181054424028535,-3.117293515244
1429448306.79643,-0.14098810456451,0.216899103861582,-9.92380922948122,-5.11436628585216e-05,2.9333372367546e-05,0.00221398007124662,-1.97907669688786,0.0180951028793747,-3.11731561015837
1429448306.80943,-0.175166633824445,0.238046996232588,-9.66310779050588,-0.00166788627393544,-0.00118854513857514,0.00195158482529223,-1.97906898891976,0.0181131625558246,-3.11729905672673
1429448306.82143,-0.193328094263189,0.218686882327497,-9.98854619780779,-0.000617858429905027,-0.0024278499186039,0.00127301819156855,-1.97910155147758,0.0181533438304213,-3.11731162046456
1429448306.82643,-0.140955069944588,0.248615773052629,-9.66010802416801,-0.00248262984678149,0.000646025291644037,0.0026241356972605,-1.97907880318511,0.0181327954793599,-3.11727686566434
1429448306.83643,-0.175971995390579,0.184971404002048,-9.95433880777955,-0.00205578957684338,0.00128807418514043,0.00152748206164688,-1.97909028649353,0.0181101310608703,-3.11728412038548
1429448306.85243,-0.106674605546985,0.205079797257483,-9.71944693284333,-0.0012159775942564,7.32481712475419e-05,0.00130281085148454,-1.97906881972507,0.0180810326553735,-3.11727369568191
1429448306.85643,-0.143213945654128,0.192268812734913,-9.82724738234877,-0.00299423094838858,-0.00127884745597839,0.00238304492086172,-1.97904946179614,0.0180782586204991,-3.11724253572987
1429448306.86643,-0.0899211487426422,0.244465795500018,-9.79616952251792,-0.000414814217947423,-0.00154906779062003,0.00222060433588922,-1.97901351926814,0.0180678389786871,-3.11723229562414
1429448306.88643,-0.123479829071183,0.249219638963602,-9.91369466270208,-0.00211367686279118,0.000108293985249475,0.00134591525420547,-1.9789879727218,0.0180310104625208,-3.11720621554393
1429448306.89643,-0.135189939679764,0.268174131209869,-9.69052420521975,-0.00157114106696099,-0.000251852063229308,0.00171035737730563,-1.97896879796554,0.0180174905294895,-3.11718831695873
1429448306.91043,-0.174014888239745,0.233994231976755,-9.98552772676945,-0.00165803637355566,-0.00343219796195626,0.00271191773936152,-1.97896889801469,0.0180646927964037,-3.11718594430191
1429448306.91643,-0.106265111430641,0.239580544209108,-9.67681950499415,0.000280339387245476,-0.00134153920225799,0.00132405385375023,-1.97893871528811,0.0180519501996709,-3.11718429047588
1429448306.92743,-0.161267616603151,0.184211489012837,-9.93850527883172,-0.000647785142064095,0.00195829011499882,0.000889595714397728,-1.97895895426837,0.0180263277881731,-3.11718673125661
1429448306.94143,-0.077906483963225,0.208555967201758,-9.74224854723811,0.000412460067309439,-9.53627750277519e-05,0.00127298897132277,-1.97891964774772,0.0179833694158028,-3.11718869727298
1429448306.94643,-0.135323950456129,0.200346229396947,-9.82343396154046,5.88566945225466e-05,-0.00164902361575514,0.00230048852972686,-1.97890523709071,0.0179811216654155,-3.11719381877138
1429448306.95643,-0.0688631311787525,0.249337785450555,-9.82388871957064,0.0003013014793396,-0.00349757820367813,0.00159672601148486,-1.97885544129133,0.0179853079459347,-3.1171962301061
1429448306.97143,-0.130743837857945,0.244071243224479,-9.71453636444807,-0.000708273844793439,-0.000907925772480667,0.00143630977254361,-1.97883505896904,0.0179769077625102,-3.11718326900252
1429448306.97743,-0.130960439750692,0.23437207057951,-9.9459707924068,0.000747463433071971,-0.00276582455262542,0.00110579165630043,-1.97883243761492,0.0179990423798794,-3.11720132153825
1429448306.98643,-0.174905809197482,0.242595672512893,-9.65336030347347,-0.00075658067362383,-0.000847104121930897,0.00166711176279932,-1.97884077312981,0.0179980066523827,-3.11719647238337
1429448307.00143,-0.192638340167049,0.224303553165495,-10.0336303711593,-0.000302264932543039,-0.00455025443807244,0.00104653835296631,-1.97886189442415,0.0180632269366865,-3.11721380529221
1429448307.01043,-0.156277936823387,0.234059789759945,-9.62550608186424,0.00096330902306363,-0.00178772723302245,0.00144757761154324,-1.97884610061681,0.0180582981867595,-3.1172232084304
1429448307.01643,-0.192601551820617,0.179183906641789,-10.0100063344657,0.00108309369534254,-0.000357756769517437,0.00165393529459834,-1.97887179026805,0.0180662956503843,-3.11725583270246
1429448307.03143,-0.129683889609389,0.191655393544305,-9.65253203595579,-0.00141949602402747,-0.000553797348402441,0.00177600560709834,-1.97885004871972,0.0180508507447301,-3.11725160087585
1429448307.03643,-0.184618736373167,0.178478206057847,-9.90536873290539,-0.00140135153196752,-0.00165986269712448,0.0019856309518218,-1.97885147147593,0.01806592785728,-3.11724254008371
1429448307.04643,-0.0958261989348102,0.223061352818366,-9.70740928904712,0.000523282214999199,-0.0028077932074666,0.00098636606708169,-1.97882473301782,0.0180754124925632,-3.11723461824862
1429448307.06143,-0.155575688571855,0.215176992776711,-9.77608944204152,-0.00019277747196611,-0.000634685449767858,0.00119775289203972,-1.97882570288631,0.0180658862255716,-3.11723775080613
1429448307.06643,-0.12857155358647,0.213301919619832,-9.84392612994909,0.00060991063946858,-0.00336529547348619,0.00215512560680509,-1.97881578870008,0.018089915796874,-3.11727083648535
1429448307.07643,-0.189012459553778,0.227833791384567,-9.71055986203253,-0.00134860456455499,-0.00358607340604067,0.00091575609985739,-1.97882867411193,0.0181283840528878,-3.11726259076178
1429448307.09143,-0.208354142753035,0.210892502124235,-9.92847839033604,-0.000533655402250588,-0.00361755350604653,8.64686517161317e-05,-1.97888332036242,0.0181820270514661,-3.1172780704527
1429448307.09643,-0.181563056863286,0.219423635636829,-9.68475789677799,0.000148944614920765,-0.000770530255977064,1.16229248305899e-05,-1.97889926682618,0.0181836753992097,-3.11728487477639
1429448307.11143,-0.223437309991289,0.169265611353423,-9.93154946834445,0.000166630459716544,-8.88733775354922e-05,0.000152187858475372,-1.97896757943821,0.0181923101460649,-3.11731798442197
1429448307.12143,-0.141290795571823,0.178861579352245,-9.70787456847131,-0.000442520889919251,-0.000649068679194897,0.000640880665741861,-1.97895788745871,0.0181715046028681,-3.11733010535651
1429448307.12843,-0.192685412445478,0.163850326572731,-9.83989877412915,-0.00249154027551413,-0.00176563253626227,0.0015604414511472,-1.97897566862623,0.0182002331128131,-3.1173162193132
1429448307.13643,-0.112760574397165,0.202502000925038,-9.76560253481865,-0.00193059258162975,-0.00255631562322378,0.00150963722262532,-1.97894907364966,0.0181975303515908,-3.11731157656831
1429448307.15243,-0.137181862415653,0.191880744999088,-9.73507704817355,-0.00124179944396019,0.000684295548126101,0.00180564902257174,-1.97894355115868,0.018170703132876,-3.11730864508831
1429448307.15643,-0.118702148074284,0.195170105400681,-9.86357892492413,-0.000652286049444228,-0.000893068150617182,0.00159740773960948,-1.97893409278936,0.0181641040340911,-3.11732535393047
1429448307.16643,-0.132422739988752,0.210871861195005,-9.72082172832787,-0.000748508609831333,-0.00108273967634887,0.00134518241975456,-1.97892083980862,0.0181501708402045,-3.11732945941027
1429448307.18243,-0.165132511870377,0.190071777614672,-9.92655998949408,-0.00183566892519593,-0.00374276773072779,0.00136802741326392,-1.97894077749676,0.0181937881223586,-3.11733997927465
1429448307.18643,-0.116893418151885,0.20840611040229,-9.73839830155075,-0.00149864552076906,-0.000717612216249108,0.00136970262974501,-1.97891254343236,0.0181720437246357,-3.11733348749312
1429448307.19643,-0.177166118812282,0.158464286152832,-9.89289620482326,-0.00112318678293377,-0.00128716987092048,0.00293881655670702,-1.9789110224852,0.0181783305424919,-3.11734930783202
1429448307.21143,-0.105472463215608,0.175170524548274,-9.81656699838042,-0.00199091504327953,0.00244033150374889,0.000595017452724278,-1.97891681708524,0.0181212383791607,-3.1173434717975
1429448307.21643,-0.144289456797997,0.165077603345364,-9.76215736280084,-0.00225734035484493,-0.000347316527040675,0.00208594929426908,-1.97890264037584,0.0181197815881417,-3.1173314629353
1429448307.23043,-0.0798431511142291,0.214521378412191,-9.89842110572457,-0.000828042044304311,-0.00291359680704772,0.00205973465926945,-1.97886329822279,0.0181266353356343,-3.1173305361675
1429448307.24143,-0.112927400597744,0.22424195917137,-9.65869581928253,-0.00213712314143777,-0.00055134086869657,0.00132302567362785,-1.9788553115699,0.0181074503679658,-3.11730276631862
1429448307.24943,-0.123164150718134,0.20621347746253,-9.97921839749217,-0.00158741243649274,-0.00298521784134209,0.00119528127834201,-1.97885348749426,0.0181390948456984,-3.1173226173126
1429448307.25643,-0.141909868185082,0.230064710508101,-9.64867594504952,-0.0012638873886317,-0.00129591976292431,0.000116773720947094,-1.97885644990817,0.0181407902446613,-3.11731598438016
1429448307.27143,-0.188275377450883,0.202168622518517,-10.0130680601239,-0.00180381280370057,-0.0031857923604548,0.000323960819514468,-1.97889099395087,0.0181720081365466,-3.11731999254869
1429448307.27743,-0.121344872002257,0.224338039956987,-9.68799439448118,-0.00157477066386491,-0.0010336940176785,0.00160834542475641,-1.97887302127062,0.0181514473398148,-3.11730144688057
1429448307.28643,-0.17924153684685,0.166609817881323,-9.93175989622474,-0.00182439526543021,-0.00018337502842769,0.000914013769943267,-1.97888765972584,0.0181432973872879,-3.1173040961702
1429448307.30143,-0.122004075696506,0.187385917797871,-9.78476316236257,-0.00015559651365038,-0.00135719776153564,0.00225664139725268,-1.97887334378679,0.0181402948925443,-3.11731861733586
1429448307.30643,-0.147428284546686,0.200284799799602,-9.77429788244963,-0.00270836986601353,-0.00150839891284704,0.0017905926797539,-1.97886499500035,0.0181467212928489,-3.11729246142875
1429448307.31643,-0.1152432123926,0.247888719153404,-9.8509193498373,-0.000695995695423335,-0.000703665427863598,0.00105143792461604,-1.97885079120659,0.0181461361168219,-3.11728962994951
1429448307.33143,-0.114097631687205,0.259508429798484,-9.65541255982816,-0.00316237332299352,-3.62307764589787e-06,0.00151623401325196,-1.97881707074837,0.0181144758438796,-3.11724421136204
1429448307.33743,-0.157189462177735,0.235692615126166,-9.94047044142485,-0.00124610890634358,-0.00263679306954145,0.00190691591706127,-1.97881868803944,0.0181527238041414,-3.11723659128936
1429448307.34643,-0.164990600915346,0.241099186877441,-9.65945569773912,0.000172884290805086,-0.00230112043209374,0.00117349659558386,-1.97881418180693,0.0181746966481773,-3.11725414903792
1429448307.36143,-0.236346768185962,0.198784368641395,-9.95565398203134,-0.00142628338653594,-0.00513791106641293,0.00013037835014984,-1.97886701440754,0.0182495792049323,-3.11725109501576
1429448307.36643,-0.194196072736755,0.225900284305029,-9.72075450831056,-0.00203294726088643,-0.000555417034775019,0.00198724959045649,-1.97887264999759,0.0182577053697262,-3.11722690036714
1429448307.37643,-0.206699470881186,0.177325309695676,-9.86216905812621,0.00020621634030249,0.000488003715872765,0.00147190957795829,-1.97887641878208,0.0182493705234441,-3.11724132536551
1429448307.39243,-0.139509684308711,0.199518382004369,-9.79879753293395,0.00106141634751111,0.00175770814530551,0.00155540043488145,-1.97887616045465,0.0182143424616944,-3.11724989909287
1429448307.39643,-0.148239473065408,0.209573236219212,-9.73318611986041,-0.000420963158831,-0.00116181501653045,0.00224253535270691,-1.97885721403515,0.0182162793183444,-3.11722325875527
1429448307.40643,-0.10733358091237,0.252440372842085,-9.86225206023455,-0.000711399712599814,-0.00429831584915519,0.00136410712730139,-1.97884097746958,0.0182430271629639,-3.11721885833506
1429448307.42643,-0.151000745339133,0.234840290879458,-9.93682653196454,-0.000998911913484335,-0.00241285748779774,0.0016715731471777,-1.97882847687617,0.0182372619360597,-3.11720733888847
1429448307.43643,-0.142019484305708,0.240437179304752,-9.67181482857466,-0.00200689677149057,-0.00180017785169184,0.00115280272439122,-1.97882305405619,0.0182406552589881,-3.11720097282206
1429448307.45143,-0.203625926921051,0.186629436874762,-9.94820834220052,-0.000531225348822773,-0.00375731522217393,0.00126961653586477,-1.97885934877696,0.0182939510508185,-3.11721247907552
1429448307.45643,-0.143447827475239,0.205259245477617,-9.74575567857623,-0.000550761993508786,-0.002140051452443,0.000728161248844117,-1.97885887829796,0.0182995703406834,-3.11721552616056
1429448307.47043,-0.205012047517207,0.163271394173615,-9.87097312682867,-0.00027434976072982,0.00154650723561645,0.0002874847559724,-1.97890075192367,0.0182927818886714,-3.11722216435592
1429448307.48143,-0.116743259958317,0.18765994896628,-9.83317209622264,-0.00164416898041964,0.00121020595543087,0.00207797763869166,-1.97887317807831,0.0182658079664368,-3.11721573605791
1429448307.48643,-0.157968538525142,0.207532231910899,-9.73185574803948,-0.00172855262644589,0.00123466411605477,0.000746485078707337,-1.97887893694617,0.0182506664628788,-3.1172033035579
1429448307.49643,-0.0898852737116627,0.246763551048376,-9.91511505089402,-0.000339797115884721,-0.00292246509343386,0.00119270163122565,-1.97884603692583,0.0182543212112876,-3.11720845470375
1429448307.51643,-0.113903561286675,0.22567599229617,-10.0016862498879,-0.000154392982949503,-0.00198030052706599,3.29921713273507e-05,-1.97883530416959,0.0182323926334328,-3.11721715670196
1429448307.52643,-0.130354546279414,0.221923507894855,-9.62280325264633,-0.000191879546036944,-0.00178955867886543,0.00167204311583191,-1.9788169608226,0.0182312098783742,-3.11722754648859
1429448307.54143,-0.180199604756664,0.17555490248967,-10.0358234972894,-0.000446724821813405,-0.00269297393970191,0.00219728844240308,-1.97883665429631,0.0182677146393833,-3.11725284263883
1429448307.54743,-0.133912384891463,0.186078543260042,-9.65852338532507,-0.00043076733709313,-0.00119897059630603,0.00247435458004475,-1.97880577621262,0.0182465365089354,-3.11725083949296
1429448307.55643,-0.188076694807317,0.15596530894395,-9.97384313419461,-0.0016571480082348,0.000300556450383738,0.00170698156580329,-1.97882588522766,0.0182359217818212,-3.11725537493126
1429448307.57143,-0.119978086294234,0.183398364265356,-9.73547919923365,-0.000312637886963785,0.000184131189598702,0.000554873899091035,-1.97882189544004,0.0182158959371505,-3.11727377090267
1429448307.57643,-0.156536587759573,0.192075409054663,-9.82399977872968,0.000356591190211475,-0.00101028964854777,0.00238775950856507,-1.97880252622582,0.0182134845683543,-3.11728241779468
1429448307.58643,-0.0995127145609818,0.235853029852267,-9.80571067332327,-0.00110059196595103,-0.00178219121880829,0.00104145624209195,-1.97879650621631,0.018214441324227,-3.1172725319191
1429448307.60143,-0.111525461377949,0.239559136094898,-9.69930489304662,-0.00103894202038646,0.00150095764547586,0.00123954378068447,-1.97876598702472,0.0181780816063772,-3.11726058826826
1429448307.61043,-0.115053562438861,0.215104932187498,-9.8969855199635,5.7603741879575e-05,-0.00229802401736379,0.000331162969814613,-1.97877315697586,0.0181926518404893,-3.11728685589761
1429448307.61643,-0.136901036180276,0.225289276267216,-9.67739525905549,-0.00082260271301493,-0.00243342434987426,0.00122031115461141,-1.97875100795271,0.0181999636960092,-3.11728269169744
1429448307.63243,-0.205287539990339,0.195898310077377,-9.96241105507612,-0.00117755273822695,-0.00619908375665545,4.01336183131207e-05,-1.97880160657692,0.0182874627220861,-3.11729793415089
1429448307.63743,-0.160769877947774,0.213491578706726,-9.70519804273844,-0.00131528009660542,-0.00211644964292645,0.00066884484840557,-1.97879194074725,0.0182937833997124,-3.11728690111077
1429448307.64643,-0.21205553628793,0.169609218893014,-9.89901848709583,0.000170902683748864,0.00057117739925161,0.00273947627283633,-1.97881495465644,0.0182926758569117,-3.11730732464533
1429448307.66143,-0.140771447872836,0.187842612056807,-9.77974913359284,-0.000438479852164164,0.00120244536083192,0.00169094081502408,-1.9788042056187,0.0182690774390246,-3.11731212507315
1429448307.66643,-0.165105331602506,0.193645617513452,-9.7770650090754,-0.00194429967086762,-0.000808949000202119,0.0022903005592525,-1.97879365168846,0.0182565005106151,-3.11729839354789
1429448307.67643,-0.11992232838585,0.223045479395799,-9.81640099416375,-0.00137933879159391,-0.00199084682390094,0.00146468484308571,-1.97878410893658,0.0182654629055314,-3.11728625547526
1429448307.69143,-0.123302773737535,0.227543576266337,-9.6881633213073,-0.000622354215011001,-0.000391671055695042,0.00175647984724492,-1.97875966154992,0.0182376614288456,-3.11728450846323
1429448307.69643,-0.153937419845536,0.205532545993663,-9.8840184863627,-0.000403820420615375,-0.00194319244474173,0.000843288959003985,-1.97877780901818,0.0182520639584983,-3.11730302191559
1429448307.70843,-0.152211491102073,0.21048728232421,-9.70995955805182,-0.00151249766349792,-0.0013125641271472,0.000772472470998764,-1.97877455590087,0.0182445035794847,-3.11730613745511
1429448307.72143,-0.210236686830316,0.166567220848612,-9.90197266072631,-0.00318242935463786,-0.00367322261445224,0.00134989933576435,-1.97881697486351,0.018296428554274,-3.11729072864331
1429448307.72643,-0.163395148417447,0.199412273015082,-9.79334861987829,-0.00180321699008346,-0.000867080641910434,0.00304846256040037,-1.9787924215571,0.0182984832056084,-3.11727693434181
1429448307.73643,-0.194652419935819,0.160435878486745,-9.81530793823004,-0.00128833902999759,0.00170327501837164,0.00274171424098313,-1.97881188533547,0.0182786629141694,-3.11727836816126
1429448307.75143,-0.138028551506018,0.187225777066406,-9.87640450422764,1.21883813335444e-05,0.00053432653658092,0.00158652197569609,-1.97880307563739,0.0182584513990416,-3.11729364707743
1429448307.75643,-0.144659267357923,0.197143140773009,-9.68566215214133,-0.00305374525487423,-0.000347838358720765,0.000635928940027952,-1.97879211034706,0.0182506421687766,-3.11726269331009
1429448307.76643,-0.107625083805388,0.239159414453898,-9.93131332150102,-0.000514859682880342,-0.00142007728572935,0.000622247927822173,-1.97878205532298,0.0182492910023413,-3.11726428094571
1429448307.78143,-0.092369774870621,0.266799153062236,-9.60628407952189,-0.00177856243681163,-0.00112846866250038,0.00227983575314283,-1.97873329595438,0.0182222411478626,-3.11724059034283
1429448307.78643,-0.146444150613854,0.216361873446032,-9.97159038683176,-0.000777621928136796,-0.00331099121831357,0.00139497651252896,-1.97874159251091,0.0182443491044447,-3.11725525324896
1429448307.79643,-0.145007943798276,0.224828764349688,-9.67295639982521,-0.00118133018258959,-0.00227913493290544,0.00268889195285738,-1.97872421836248,0.0182455032418278,-3.11725891257146
1429448307.81243,-0.208804261140712,0.174139263538085,-9.94516064506769,-0.00088881776900962,-0.00211481284350157,0.00276747136376798,-1.97876193980261,0.0182888921106867,-3.11726491362938
1429448307.81643,-0.153410528160911,0.201409566045832,-9.77190134270191,-0.00258173607289791,-0.000581832602620125,0.00239029689691961,-1.97875566328178,0.0182815124047524,-3.11724113542052
1429448307.82943,-0.175859639323596,0.166773940668162,-9.8404739436686,-0.000945086474530399,0.00249676220118999,0.00177630688995123,-1.97877312530357,0.0182485922859103,-3.11724121668715
1429448307.84143,-0.12171639046208,0.191457039694302,-9.86319197143316,-0.00224242964759469,0.000911413342691958,0.000661397934891284,-1.97875737109007,0.0182239204223542,-3.11722850687151
1429448307.84643,-0.116026197730144,0.218622073462978,-9.70175287072062,-0.0018961833557114,0.00100085919257253,0.00125062093138695,-1.97874427517034,0.0181899940482878,-3.11721206319936
1429448307.85743,-0.117101224816823,0.230849266748223,-9.90882208822966,-0.00137158390134573,-0.000455880217486992,0.00169403979089111,-1.9787346377276,0.0181808001466922,-3.11720898690551
1429448307.87643,-0.152313508438133,0.17961195932813,-9.92064696605802,-0.000984577927738428,-0.00148944091051817,0.000836091174278408,-1.9787214363617,0.0181498421260179,-3.11723628042549
1429448307.88643,-0.126412274927041,0.182533509330638,-9.71206675946414,-0.00124045147094876,-0.00177010928746313,0.000428910163464025,-1.97871889872756,0.0181443945225648,-3.11724828806517
1429448307.90143,-0.219942325748689,0.131359558603493,-9.89424060516953,-0.00296791316941381,-0.00519582722336054,0.001779256737791,-1.9787523425196,0.0182089739823454,-3.11723744625981
1429448307.90643,-0.161184066505544,0.163138159715384,-9.80968717573881,-0.00196936121210456,-0.00183651223778725,0.000726665311958641,-1.97876117923354,0.0182246445409533,-3.11723376350904
1429448307.91643,-0.181310159814451,0.17352617314104,-9.79058383134007,-0.00160037039313465,0.00254212971776724,0.00332312611863017,-1.97875278459529,0.0181947342869431,-3.11723067979516
1429448307.93143,-0.150698392258538,0.190713326921221,-9.90002269570231,-0.00217285542748868,0.000720584241207689,0.00285593187436461,-1.97875993428168,0.0181788731753283,-3.117221183143
1429448307.93643,-0.113874143395945,0.227680683182087,-9.67277169090807,-0.00284011173062027,0.000913349445909262,0.0029454396571964,-1.97872584434016,0.0181343460392924,-3.11720179273173
1429448307.94643,-0.126722856979864,0.240632044289727,-9.90521792625785,-0.00358196254819632,-0.00171345984563231,0.000995863694697618,-1.97873463073759,0.0181482784699467,-3.11718271540407
1429448307.96643,-0.163013711351808,0.214150371409021,-9.89804584267139,-0.00130572356283665,-0.00177144794724882,0.000786477758083493,-1.97872077229362,0.0181501203512792,-3.11716285912047
1429448307.97643,-0.1453267000244,0.17588174155755,-9.73311247010231,-0.00331715145148337,-0.000891745206899941,0.000315259501803666,-1.97871861945676,0.0181440842039209,-3.11715433987568
1429448307.99143,-0.178940873399843,0.170441778993327,-9.8780785749197,-0.00214757490903139,-0.000580792955588549,0.00117425958160311,-1.9787456412534,0.0181642124592381,-3.11715642151
1429448307.99643,-0.163427388452925,0.217378813669924,-9.81730232691765,-0.00198733666911721,-0.00126723723951727,0.000923859362956136,-1.97875290694196,0.0181744266035875,-3.11712514087622
1429448308.00643,-0.153536529160757,0.194174226231128,-9.788003751719,-0.000696429167874157,3.69205372408032e-06,0.0014212770620361,-1.97875531792503,0.0181537714358502,-3.11711891896821
1429448308.02143,-0.124722367345029,0.232204352885298,-9.9122824578166,-0.000359786965418607,-0.00122805510181934,0.00222771312110126,-1.9787419804892,0.0181561286155915,-3.11712454735085
1429448308.02643,-0.193311508454569,0.248072825282346,-9.65202233286798,-0.00203175097703934,-0.000886388472281396,0.00216206768527627,-1.97874414755137,0.0181550833117884,-3.11709562082222
1429448308.03643,-0.0904320939394645,0.270943760319985,-9.9701033631444,-0.00131685833912343,-0.00161084346473217,0.0015310876769945,-1.97871602183955,0.0181531293025604,-3.11707259471002
1429448308.05143,-0.109041179414699,0.295213218777627,-9.57195101728737,-0.00106745667289943,0.00180771318264306,-0.000370570691302419,-1.97869209483417,0.0181036697351795,-3.1170473998634
1429448308.05643,-0.193516730436776,0.177790004597977,-10.031735351193,0.00154705392196774,-0.0016900843475014,0.00186663761269301,-1.97872982826058,0.0181380882434282,-3.1171055957669
1429448308.06643,-0.114656005355483,0.190439935073629,-9.57768576154709,-0.000406137551181018,-0.00186431361362338,0.000929066620301455,-1.97870567161531,0.018133361678201,-3.1171156123254
1429448308.08143,-0.25738530016467,0.171438005222753,-10.0057954387724,-0.00352524570189416,-0.00278885988518596,0.000923863553907722,-1.97876353987225,0.0181900786270082,-3.11708959046448
1429448308.08643,-0.146489104000432,0.211007159746159,-9.71900386525095,-0.00167885085102171,-0.000705060199834406,0.00110440386924893,-1.97874115565715,0.0181771634507769,-3.11706869171413
1429448308.09643,-0.202526021121442,0.208372043735906,-9.85493969139457,0.000381059537176043,0.000931527581997216,0.00231121014803648,-1.97875283066683,0.0181845440465572,-3.11708997990387
1429448308.11143,-0.127923163547181,0.223586764931958,-9.82322119557261,-0.000465502525912598,0.000163148855790496,0.00122092477977276,-1.97874416706637,0.0181554448375799,-3.11708728363657
1429448308.11643,-0.132592406600388,0.250729568602517,-9.73302186920941,-0.00175472849514335,-0.000270698335953057,0.00112449051812291,-1.97872931810569,0.0181422461887141,-3.1170618775342
1429448308.12843,-0.122633030382963,0.240247081826441,-9.88347254291773,3.83915903512388e-05,-0.00265723606571555,0.00130669982172549,-1.97872124159648,0.0181630057403594,-3.11708172723365
1429448308.14143,-0.0844316296819597,0.241716478525568,-9.61753320328891,0.000259278836892918,-0.00120921956840903,0.00124105915892869,-1.97867811908815,0.0181408961438739,-3.11708822469664
1429448308.14743,-0.164771039880533,0.217432461819611,-9.96025884547829,-0.000862149114254862,-0.00164146383758634,0.0016842222539708,-1.9786964687866,0.0181624328930586,-3.11708778531588
1429448308.15643,-0.117315168961603,0.227365498019382,-9.65356605517864,-0.00212073256261647,-0.00164168374612927,0.00322801107540727,-1.97865394189326,0.0181484372092872,-3.11706485003078
1429448308.17243,-0.207142593272496,0.187324177673273,-9.97943116346002,0.00235027866438031,-0.00314448773860931,0.000651757523883134,-1.97869991280348,0.0181912350302523,-3.11711995386924
1429448308.17743,-0.132857953068241,0.198561519670952,-9.70510159662664,-6.94848495186307e-05,-0.000726997852325439,0.000799884786829352,-1.97869375068863,0.0181759955168596,-3.11712366667261
1429448308.18643,-0.169426592335105,0.189923162924219,-9.92125369977951,-0.00039719752385281,0.000593554286751896,0.00157918676268309,-1.97870222666117,0.0181621268119543,-3.11712079405012
1429448308.20143,-0.115131431714352,0.214900276460871,-9.78546926480532,0.000685126113239676,0.000963421654887497,0.000887693895492703,-1.97869421880129,0.0181301877837324,-3.11713953934955
1429448308.20643,-0.139161674588639,0.212823214458488,-9.78813293105662,-0.00100181205198169,-0.00110163039062172,0.00119584996718913,-1.97866689603834,0.0181134563185389,-3.11714524933441
1429448308.21643,-0.133378405878926,0.238474793190602,-9.83673884879351,-0.00312950392253697,-0.00232099019922316,0.00165826920419931,-1.97866025163104,0.0181334760784552,-3.11712481930576
1429448308.23143,-0.109026118842885,0.254804197630286,-9.73955623941421,-0.00238027586601675,-0.000897435180377215,0.00108022219501436,-1.97864387271444,0.0181156910696312,-3.11709212656464
1429448308.23643,-0.153066162569495,0.184601693906821,-9.85844097751379,0.00181151216384023,-0.00269593275152147,0.000283957604551688,-1.97867141066352,0.0181305185118573,-3.11715566566467
1429448308.24843,-0.134945965722902,0.155796838775557,-9.77629694731236,0.00053106457926333,-0.00125832099001855,0.00175220507662743,-1.97866627313397,0.0181194259046505,-3.11720551486519
1429448308.26143,-0.200277201015037,0.114392696510488,-9.85897756860852,-0.00160910445265472,-0.00399710889905691,0.00142857490573078,-1.97870312211323,0.0181796929283717,-3.11721099995787
1429448308.26643,-0.139629876622278,0.174175759623572,-9.80560487486124,-2.22912294702837e-05,-0.00307767326012254,0.00269024935550988,-1.97866963391683,0.0181883285883562,-3.11721983271772
1429448308.27643,-0.180152952603344,0.159868563460186,-9.78562767023742,0.000448318169219419,0.000756849418394268,0.00218909303657711,-1.97868695717593,0.018173105272812,-3.11723930254188
1429448308.29243,-0.123391547999531,0.182968777209055,-9.89979239407778,-0.000927474349737167,0.000478564121294767,0.000738452770747244,-1.97867992434716,0.0181534462947733,-3.11725071780979
1429448308.29743,-0.140190305250324,0.193882476742938,-9.65531319110691,-0.00133088382426649,0.000514342449605465,0.00139209907501936,-1.97867481352845,0.018132673637023,-3.11723905307348
1429448308.30743,-0.113396278484818,0.208826527771447,-9.93244495587945,-0.000243555652559735,-0.00162579002790153,0.0017418711213395,-1.97867035965025,0.0181367566598331,-3.11726413323013
1429448308.32143,-0.115784233067278,0.217406742856465,-9.60173766826391,-0.00110862054862082,-0.00180134712718427,0.00262630661018193,-1.97863545367514,0.018137768592915,-3.11725958789177
1429448308.32743,-0.157146445019916,0.166071089628432,-9.94040029879808,-0.00194224331062287,-0.000677067844662815,0.00116375030484051,-1.97865790513754,0.018141219489017,-3.11727889381448
1429448308.33743,-0.154743292868324,0.199805053458642,-9.6764541788131,-0.00340041751042008,-0.00224822154268622,0.00247010379098356,-1.9786367362859,0.0181456663288572,-3.11725843185339
1429448308.35243,-0.212977144644875,0.157691182888485,-9.9030727309227,0.000347872555721551,-0.00378074962645769,0.00240731192752719,-1.97867218755601,0.0182002069374416,-3.11728798778348
1429448308.35743,-0.151780762401456,0.189497009934019,-9.78987480628788,-0.00104029581416398,-0.00116998911835253,0.00165161397308111,-1.97865870111987,0.0182005501791499,-3.11729265958375
1429448308.36643,-0.171726813835185,0.168019867342338,-9.78290730536282,-0.00157139380462468,7.15588830644265e-05,0.00212988420389593,-1.97866758035708,0.0181880532109183,-3.1172888297697
1429448308.38143,-0.132701876590541,0.196639355969336,-9.89520272819996,-0.00195967545732856,-0.000185043492820114,0.00126282218843699,-1.9786727214975,0.0181653719722099,-3.11728950492108
1429448308.38643,-0.12830892059491,0.21850210034512,-9.66668564899266,-0.00169276259839535,-0.000412505818530917,0.00188671215437353,-1.97865006358757,0.0181533426449262,-3.11727989378565
1429448308.39643,-0.130421108709602,0.240307634640951,-9.93169209168553,-0.00230531976558268,-0.00307110138237476,0.00124752451665699,-1.97864503808734,0.01818469933923,-3.11726347679077
1429448308.41643,-0.160820585221704,0.198519872486312,-9.95642087475061,0.00104102131444961,-0.00121716421563178,0.00067954882979393,-1.97861498545934,0.0181468748137571,-3.1172645529794
1429448308.42743,-0.142243913311884,0.185414818654303,-9.69406056265235,-0.00180030823685229,-0.0022301166318357,0.00219553522765636,-1.97860762614869,0.0181578663908274,-3.11726260524629
1429448308.44143,-0.214545362075977,0.145080433645751,-9.91777579453587,-0.00357054593041539,-0.00464629987254739,0.0023384231608361,-1.97863719865576,0.0182309261423736,-3.11724090645218
1429448308.44743,-0.174884711610526,0.206331623949483,-9.81481460175514,-0.0018391398480162,-0.00282363453879952,0.00190456688869745,-1.97863371442644,0.0182543795161865,-3.11721982045199
1429448308.45643,-0.174599811988231,0.213640704853833,-9.80241572343111,0.000196317618247122,0.000501029775477946,0.000469695660285652,-1.97863397760762,0.0182411654758575,-3.1172238386212
1429448308.47143,-0.164094601923693,0.238522066398431,-9.90037107074857,-0.000464835902675986,0.000390942179365084,0.00028923264471814,-1.97864429818507,0.0182290328375085,-3.1172408530979
1429448308.47643,-0.133789982354501,0.275315253402479,-9.70732745598256,-0.00243630702607334,-0.000814929779153317,0.00135437829885632,-1.97862699103664,0.0182181179718869,-3.11719918290302
1429448308.48643,-0.139893843054399,0.275623406036198,-9.88869349243641,-0.000533902551978827,-0.00238498207181692,0.000544236041605473,-1.9786299648037,0.0182339527108402,-3.11719090326986
1429448308.50143,-0.0921086945153307,0.289502184187062,-9.67616367143392,-0.000157593385665677,0.000361992919351906,-0.000122117780847475,-1.97859758262099,0.0181956059706721,-3.11716756172603
1429448308.50643,-0.167112305777054,0.211843921097554,-9.8899747644186,0.00064170005498454,-0.00155396701302379,0.00102632073685527,-1.97861898067248,0.0182134376742455,-3.11719201251329
1429448308.51843,-0.131309636780852,0.21419706009496,-9.75853332708478,-0.00117090239655226,-0.00176203751470894,0.00131668278481811,-1.97859701090297,0.0182135397277533,-3.1171760356251
1429448308.53643,-0.156718574996665,0.234509652419295,-9.87563176628947,-0.00156498269643635,-0.00322086364030838,0.00183192815165967,-1.97861406855025,0.0182978096057378,-3.11715346999384
1429448308.54643,-0.178236798517406,0.261666356751043,-9.74437796048224,-0.00142250012140721,0.00207013473846018,0.00121421960648149,-1.97862305451979,0.0182640097278904,-3.11712900054695
1429448308.56143,-0.149829701398918,0.265868502882309,-9.95278514859676,-0.000415896880440414,0.00283244601450861,-0.000111678134999238,-1.97862996530918,0.0182333822131642,-3.11712806687959
1429448308.56643,-0.147596325456817,0.271862318203319,-9.65034183243513,0.00027743709506467,-0.000375099072698504,0.00140472140628844,-1.97861988084763,0.0182217727045415,-3.11713076348525
1429448308.57643,-0.0934314675516914,0.244719605864305,-9.92026585778594,-0.000949726323597133,-0.00272049219347537,0.000404399761464447,-1.97861351699218,0.018229536980979,-3.11713228251221
1429448308.59243,-0.0822656016213354,0.232965857043397,-9.64305576708019,-0.000617948186118156,0.000115709175588563,-0.000318101578159258,-1.97858579203487,0.0181769776290578,-3.11712568146263
1429448308.59643,-0.108821773643512,0.113644280162826,-9.92298739170432,0.00143857591319829,-0.0020677144639194,-1.34283909574151e-05,-1.9785835521194,0.0181743702347036,-3.11716356511909
1429448308.60643,-0.0913750556116924,0.181161545123998,-9.67489584345519,0.000368849199730903,-0.00417325552552938,0.000524563365615904,-1.97855217220776,0.0181846476847323,-3.11717012168304
1429448308.62143,-0.130177956736647,0.194157567357272,-9.87644425171614,0.000211760969250463,-0.00508182728663087,0.00270417239516973,-1.97854222702931,0.0182084406254056,-3.11719216910469
1429448308.62643,-0.100557300843624,0.227297529083397,-9.84739702093005,-0.00133353983983397,-0.00244654365815222,0.00044618351967074,-1.97855434333968,0.0182134524481559,-3.11718207755907
1429448308.63643,-0.167883454546332,0.212413665543217,-9.75281202682853,0.000612865434959531,0.00184276979416609,0.00101247010752559,-1.97854489749774,0.0181727871992303,-3.11719820228184
1429448308.65143,-0.105824089664873,0.213642239223793,-9.93448961344957,0.00019574242469389,-0.00150097836740315,0.00253525609150529,-1.97854718488017,0.0181875708609662,-3.11722977054754
1429448308.65643,-0.222713671891857,0.227807414834294,-9.6589471636951,-0.0014784560771659,-0.00185542553663254,0.00345950992777944,-1.97856377652392,0.018219673391248,-3.11722437123963
1429448308.66643,-0.11555877201464,0.204298620284535,-9.95319782105088,-0.00128838361706585,-0.00243463087826967,0.00163448206149042,-1.97855735180455,0.0182238081659297,-3.1172361840494
1429448308.68143,-0.169240732640494,0.21890626069922,-9.60851812218428,-0.000454779772553593,0.000219219597056508,0.00170863186940551,-1.97858311533427,0.018215671284028,-3.11723662801409
1429448308.68643,-0.168001601033285,0.135776690059155,-9.94883611871004,0.000692932400852442,-0.00156529259402305,0.001217593671754,-1.97859552373649,0.0182245961622655,-3.11728254880928
1429448308.69643,-0.135532314243494,0.158735138983466,-9.63412368808389,-0.00123466085642576,-0.00205494114197791,0.00190844538155943,-1.97857570991353,0.0182274663443716,-3.11728193641434
1429448308.71143,-0.236361253369041,0.14295155925774,-9.95346670112014,-0.00196842825971544,-0.00381193635985255,0.00118411867879331,-1.97861379640153,0.0182733744771297,-3.11728041239676
1429448308.71643,-0.13714769528457,0.173553225544747,-9.72091875896156,-0.000677839678246528,-0.00256797554902732,0.00138072180561721,-1.97859935846326,0.0182936540731339,-3.11729063078102
1429448308.72843,-0.226047255027667,0.174518106787838,-9.84974913701415,-0.00128660327754915,0.00040032624383457,0.00140560022555292,-1.97864745523261,0.0182981540324984,-3.1173057763524
1429448308.74143,-0.164486414252873,0.20214736053478,-9.84172832764387,-0.000747775775380433,0.000148768245708197,0.00074804708128795,-1.9786636629187,0.0182907982911444,-3.11731108866335
1429448308.74743,-0.182263916875329,0.212935862786416,-9.74042366989851,-0.00105601025279611,-0.000788794015534222,0.00167792302090675,-1.97867243415785,0.0182918523838611,-3.11731347427667
1429448308.75643,-0.169809691634867,0.19377194730686,-9.87995839731693,0.000332310039084405,-0.00147647515404969,0.00087042769882828,-1.9786997517988,0.018309743178131,-3.11735590364001
1429448308.77143,-0.129907496631658,0.197768506129738,-9.65004489531517,-0.00333123747259378,0.000674133887514472,0.000704557227436453,-1.97869199806013,0.0182783353018012,-3.11733053392058
1429448308.77643,-0.163102047222387,0.16130581145538,-9.9482831610024,-0.000817103602457792,7.65682198107243e-05,0.00227290135808289,-1.97870635530668,0.0182730022354567,-3.11734975636189
1429448308.78643,-0.128219388281088,0.164167776757758,-9.65655822273195,-0.000818477536085993,-0.000368719192920253,0.00138080981560051,-1.97868406044605,0.018248265103697,-3.11735970613809
1429448308.80143,-0.174797051593382,0.135457723770477,-9.93269045507312,-0.00158704037312418,-0.00318948109634221,0.00170787156093866,-1.97870462530582,0.0182944778589175,-3.11738079182032
1429448308.81143,-0.134465397398034,0.18520371492058,-9.76648808548152,-0.00222378619946539,-0.00201265863142908,0.00165582459885627,-1.97868887940635,0.0182936063995609,-3.11736805110986
1429448308.81643,-0.153173915526597,0.186463176929764,-9.85395886366367,-0.00254148407839239,0.00169183372054249,0.000289839401375502,-1.97869355280021,0.0182595037831806,-3.11734577814306
1429448308.83143,-0.127929556755349,0.199413624721952,-9.84316391340494,-0.00124942767433822,0.000276012753602117,0.00182324578054249,-1.97868874053699,0.018238738274748,-3.11735267569414
1429448308.83643,-0.128929655442294,0.210326538804546,-9.76459949525595,-0.00261797872371972,-5.79988700337708e-05,0.00232681399211287,-1.9786463278544,0.018213877042268,-3.11734278917104
1429448308.84643,-0.110250007215189,0.229505396124907,-9.8880364898324,-0.0041045043617487,-0.00315798074007034,0.00172910816036165,-1.97862675196338,0.0182358247764502,-3.11730622038121
1429448308.86643,-0.109516158248996,0.208763563804142,-9.87864439210892,-0.00142952834721655,-0.0020259078592062,0.00142876023892313,-1.97857032665027,0.0181689811934096,-3.11728857737984
1429448308.87643,-0.100738036838546,0.217793678081129,-9.75377590342462,-0.00143330346327275,-0.000263376685325056,0.000720906595233828,-1.97854338605862,0.0181385733707811,-3.11728181652716
1429448308.89243,-0.169508973388933,0.187715935203526,-9.84849709112644,-0.00185377104207873,-0.00438808277249336,-0.000459441973362118,-1.97857691763129,0.0181940262582245,-3.11727206220611
1429448308.89643,-0.134232237096131,0.2309472837626,-9.86205332279205,-0.000910605769604445,-0.0021848501637578,0.00090983317932114,-1.97856035620961,0.0181990788598871,-3.11726107567652
1429448308.91043,-0.182491259357799,0.219099956640415,-9.75439783471525,-0.000498734647408128,-0.000495293526910245,0.000347904511727393,-1.97858041937093,0.018199733657258,-3.11726095219116
1429448308.92143,-0.141450187384617,0.226513356435765,-9.94777462695837,-0.00252592680044472,-0.000525934912730008,0.00199403055012226,-1.97857747034911,0.0181940352805139,-3.11723802155727
1429448308.92643,-0.163219061198179,0.261873186168447,-9.65975672651231,-0.00226369965821505,-0.00235329102724791,0.000927308166865259,-1.97858038307216,0.0182070764716413,-3.11720081012485
1429448308.93643,-0.142948508784128,0.245257274671271,-9.94092870658636,0.000825006631202996,-0.00490143103525043,0.000844681519083679,-1.97858391839755,0.0182481622664914,-3.11721545142647
1429448308.95143,-0.113530837250454,0.272433030763362,-9.62921019707918,-0.00078743853373453,-0.00264327088370919,-3.34305659634992e-05,-1.97855945096181,0.0182379021041671,-3.11718365472367
1429448308.95743,-0.146742220244976,0.212822264610417,-9.88733272547722,-0.00139311398379505,0.000217515567783266,0.0015064540784806,-1.97856085419034,0.0182137097868314,-3.11717840219238
1429448308.96643,-0.122201096105948,0.23261446805615,-9.72769687479436,-7.89443874964491e-05,-0.00159457337576896,0.00233661336824298,-1.97853131043599,0.0182196898838226,-3.11718105691951
1429448308.98143,-0.201510779664293,0.19807813833449,-9.82025299341679,-0.00168393994681537,-0.00272976933047175,0.0010579926893115,-1.97855886935036,0.018253525384931,-3.11716952264722
1429448308.98643,-0.163234898088127,0.247948504782934,-9.85993852259517,-0.00173736398573965,-0.00174029055051506,0.00157526414841413,-1.97855060852856,0.0182779697525478,-3.11714461101448
1429448308.99643,-0.201795460090879,0.270396209439822,-9.72543243699372,-0.00265039899386466,0.000693074020091444,0.00112816202454269,-1.97855920942427,0.0182715039485623,-3.11709618504319
1429448309.01043,-0.17777181135416,0.256149748754036,-9.95240871649981,0.000361672748113051,0.000388143176678568,0.000870226824190468,-1.97857114017448,0.0182642027475376,-3.11711850675422
1429448309.01743,-0.170766298239958,0.276586204920057,-9.63999637950957,-0.00133139512035996,-0.000951149617321789,0.00059352838434279,-1.97857634012492,0.0182715515524047,-3.11710736488777
1429448309.02743,-0.163654018549342,0.233670699110813,-9.93300726593733,-0.00132397981360555,-0.00129323604051024,0.00128995918203145,-1.97858588464605,0.018284000083199,-3.11710093515422
1429448309.04143,-0.102393074036576,0.270896286182757,-9.63586497879326,-0.000192923878785223,-0.00120883760973811,0.00203754985705018,-1.97855165320943,0.0182605535731445,-3.11707951664293
1429448309.04743,-0.159597783694789,0.189809473416675,-9.87134488275051,0.000837313302326947,-0.00145957013592124,0.00154025631491095,-1.97855320426215,0.0182636031531833,-3.11710164065476
1429448309.05643,-0.112134907646338,0.189684787591081,-9.74778923023045,0.000908601738046855,-0.00175463210325688,0.00100653758272529,-1.97854862323469,0.0182636790569201,-3.11712161926301
1429448309.07143,-0.198127603499405,0.180783651722316,-9.81923358724117,-0.000960812962148339,-0.00235227914527059,0.00329295173287392,-1.97855150660354,0.0182974476889256,-3.11711665246577
1429448309.07643,-0.149767047958868,0.213362070575543,-9.87731168220043,0.00200965837575495,-0.00146907183807343,0.00220585335046053,-1.97853726033324,0.0183055264085834,-3.11715001746366
1429448309.08643,-0.16785457551172,0.218474664348923,-9.72716086822152,0.00265344604849815,0.00141551787965,0.00192972074728459,-1.97853912791126,0.0182821407715096,-3.11718601948613
1429448309.10143,-0.188836354068201,0.191260183681641,-9.96064696801305,-0.00049467314966023,0.000490117236040533,0.00047985918354243,-1.97858080818519,0.0182867180360197,-3.11720846225772
1429448309.11143,-0.121873444187315,0.230524254311249,-9.68281494601667,-0.000130298911244608,0.0018636928871274,0.00176904234103858,-1.97855543604085,0.0182372159896413,-3.11721414704928
1429448309.11643,-0.172103775655106,0.187122809882276,-9.9147023784399,-0.000471239676699042,-0.000508140597958118,0.000850418175105006,-1.97858951197356,0.0182529107100685,-3.11723704759294
1429448309.13143,-0.0853070151438471,0.19711247164011,-9.68207727939188,-1.66271765920101e-05,0.000686762621626258,0.00146280380431563,-1.97854711779811,0.0182104165823592,-3.11725296731682
1429448309.13743,-0.145277454055194,0.126310230191518,-9.85676573777795,-0.00107498816214502,-0.000432822242146358,0.00188015506137162,-1.97854947893874,0.0182034411186394,-3.11726347330698
1429448309.14643,-0.0973669895028695,0.127820762618631,-9.77595383296311,-8.44299866002984e-05,-0.00136452331207693,0.0019896614830941,-1.97852862015662,0.0181855836455808,-3.11728425248462
1429448309.16143,-0.162963296338823,0.134533466798719,-9.78577204714417,-0.000337165256496519,-0.00396075332537293,0.00224705645814538,-1.97852955607418,0.0182285329251665,-3.11729523625052
1429448309.16643,-0.144588951201225,0.179916714428365,-9.92612393616438,-0.00108908384572715,-0.00318579445593059,0.000297573569696397,-1.97854287575367,0.0182536587508118,-3.11730621085987
1429448309.17643,-0.156701495997701,0.201002830142155,-9.69679144892097,-0.00105761608574539,-0.000630666152574122,0.000699627271387726,-1.97854718626136,0.0182531935998943,-3.11730690146173
1429448309.19143,-0.145378695073118,0.19794046516316,-9.99133787435293,-0.00136255589313805,0.000628692621830851,-0.000585504400078207,-1.97858521013656,0.0182302904110785,-3.11733074292488
1429448309.19643,-0.129460748378001,0.205658967118617,-9.63583925983012,-0.0012804982252419,0.00135766132734716,0.00220917421393096,-1.97856837008239,0.0182018190680393,-3.1173429593497
1429448309.20643,-0.149453223636188,0.172973507694341,-9.9891973551929,-0.00258919596672058,-0.00243429047986865,0.00196540588513017,-1.9785818466614,0.0182292933708388,-3.11735610661822
1429448309.22143,-0.0858091377133969,0.19772488618372,-9.59293476860523,-0.00113479606807232,-0.00114978617057204,0.000806983269285411,-1.97857000427146,0.0182084645693861,-3.11735339095769
1429448309.23143,-0.166474062672444,0.149473581437627,-9.95062124856114,0.00119763321708888,-0.000196833279915154,0.00103340554051101,-1.97858679517227,0.0182097678668053,-3.11738367416026
1429448309.23643,-0.108089203318954,0.155885265977681,-9.69083692443073,-0.000909724098164588,-0.00185665872413665,0.00335331493988633,-1.97853271959724,0.0181997036243842,-3.11739101396342
1429448309.25143,-0.196232784462441,0.155771247676574,-9.88831004607677,-0.0020544605795294,-0.00169039017055184,0.00282186339609325,-1.97855392771408,0.0182300469769989,-3.11737790460232
1429448309.25643,-0.136894661238417,0.204500755260512,-9.82579192284346,-0.000782087678089738,-0.00231882068328559,0.000695254479069263,-1.97854673226617,0.0182335847732002,-3.11737678807185
1429448309.26643,-0.182113658217061,0.215187879496906,-9.78013900969326,-0.000741573632694781,0.000253015488851815,0.00107977853622288,-1.97855847730517,0.0182303661218312,-3.11737682517318
1429448309.28143,-0.145221476951102,0.215126650828961,-9.9352646894753,-0.00147327373269945,-0.00101894850376993,0.000133252528030425,-1.97858209937997,0.0182408388832874,-3.11738479509024
1429448309.28643,-0.156967782251071,0.234595778066479,-9.66948726240993,-0.000324529537465423,-3.01041945931502e-05,0.00132608960848302,-1.97856677252656,0.0182223412525681,-3.11738020453367
1429448309.29643,-0.155537895578425,0.218538432033826,-9.94881624496579,-0.00144068978261203,-0.00325019494630396,0.00160449929535389,-1.97856867701168,0.018249562124242,-3.11737483587239
1429448309.31143,-0.0982803506212775,0.249593659907766,-9.6043341144979,-0.00080647983122617,0.000247208721702918,0.0029717767611146,-1.97852297736592,0.0182058775009692,-3.11736036926981
1429448309.31643,-0.155436152237002,0.207307556309551,-9.93611575334668,-0.000985775724984705,-0.00156841124407947,0.00172505166847259,-1.9785400403894,0.0182062734464693,-3.11736462236111
1429448309.32743,-0.111655243503768,0.225758300284762,-9.67418214222789,-0.00271122134290636,-0.00176484708208591,0.00139558711089194,-1.97850841541178,0.0182053198653643,-3.11732888068759
1429448309.34143,-0.210859677566867,0.212092890889943,-9.89458547308445,-0.00291114626452327,-0.00301905092783272,0.00230455724522471,-1.97852971949944,0.0182607731934368,-3.11730521712877
1429448309.34743,-0.150643912991788,0.248529903133772,-9.78441361827254,-0.00288063380867243,-0.00168075785040855,0.00163515820167959,-1.97852446848562,0.0182670349313498,-3.11727409885703
1429448309.35743,-0.209067990110815,0.262145463771187,-9.8058112110883,-0.000342522573191673,-0.000356740434654057,0.00251883408054709,-1.9785241627701,0.0182848146503999,-3.11725684106107
1429448309.37143,-0.159868563460186,0.267019298618939,-9.86776176356673,-0.00175694364588708,0.000683079764712602,0.00161365186795592,-1.97851883063593,0.0182631551155468,-3.11723793112502
1429448309.37643,-0.148252469544299,0.282607328373101,-9.71549614939094,-0.00139464146923274,-0.00110574183054268,0.00235692225396633,-1.97849124139605,0.0182591902423612,-3.11721313786217
1429448309.38643,-0.147228085799469,0.267395054862462,-9.86937972015738,-0.00148339802399278,-0.00304589443840086,0.00210692244581878,-1.97848988594831,0.0182848892342111,-3.11720377445307
1429448309.40143,-0.0733389659851324,0.293785359665286,-9.68611457208395,-0.000165566467330791,-0.00145111687015742,0.00211395742371678,-1.97845088497467,0.018259040998459,-3.11717477326961
1429448309.40643,-0.150055363380956,0.230285184858367,-9.82930606844425,0.000794054241850972,-0.00123366131447256,0.00193166872486472,-1.97844501215662,0.0182683563330131,-3.1171850403625
1429448309.41643,-0.0901527290088125,0.212953234046325,-9.76831530090868,0.000531637691892684,-0.00310860760509968,0.0015961843309924,-1.97840422009193,0.0182741212084735,-3.1171978894048
1429448309.43143,-0.206603116100933,0.197038675751537,-9.80125544748008,-0.000439460942288861,-0.0027353772893548,0.00284227263182402,-1.9784185306144,0.0183134028877697,-3.11718401388568
1429448309.43643,-0.145634039807366,0.227747008150257,-9.88905589600801,4.70539707748685e-05,-0.00294939824379981,0.00157884100917727,-1.97840370019366,0.0183379642583651,-3.11718236218846
1429448309.44643,-0.187706728983764,0.231841583987512,-9.71272843824327,-0.000169193372130394,0.000479626527521759,0.000847473624162376,-1.97841806072167,0.0183336812020503,-3.11719577706134
1429448309.46143,-0.168945439488348,0.214233939772937,-9.97855204253793,0.00139211025089025,0.000538633088581264,-0.000566663045901805,-1.97845475572073,0.0183237880710753,-3.11723610846242
1429448309.46643,-0.135327110527595,0.231245316861104,-9.65355085760951,0.000492083083372563,0.00144363043364137,0.0020632348023355,-1.9784389344366,0.0182849075950914,-3.11724448966315
1429448309.47643,-0.135702620175947,0.200523631790467,-9.93055695017576,0.00133240001741797,-0.00189622724428773,0.00092941423645243,-1.97845186996595,0.0182873477040731,-3.117277618539
1429448309.49143,-0.0634500566214556,0.22763125454979,-9.66258873506784,-0.000569664756767452,0.000780759495683014,-7.66294833738357e-05,-1.97841458680599,0.0182433908989361,-3.1172718085037
1429448309.49743,-0.134187786033051,0.151865308012906,-9.86122797788381,-0.000903656589798629,-0.00207470171153545,0.00212653959169984,-1.97842203054595,0.0182516526123868,-3.11729056383103
1429448309.51143,-0.089415948300017,0.14851112961364,-9.78774247043431,0.000537064101081342,-0.00170193938538432,0.00155423290561885,-1.97841074292725,0.0182388230600201,-3.11732336161525
1429448309.52943,-0.16507479033377,0.161927523550298,-9.93829952712655,0.000712752749677747,-0.00306743802502751,0.00156259129289538,-1.97847829945702,0.0183179360878593,-3.11737762133079
1429448309.53643,-0.174122750794701,0.179258013057616,-9.70072235862911,0.000707391707692295,0.00076233921572566,3.02199368888978e-05,-1.97850661310206,0.0182966208418541,-3.11739391478927
1429448309.55243,-0.167332652263157,0.168830106012989,-9.99613095384836,-0.000435478374129161,0.00169887847732753,0.000917688710615039,-1.97853835309286,0.0182684556470881,-3.11742536245927
1429448309.55643,-0.124857556298329,0.192783794786036,-9.64714215961099,-0.00181695597711951,-0.000525454350281507,0.000397336028981954,-1.97854924538148,0.0182518418472029,-3.11743026638668
1429448309.56643,-0.146117156282347,0.149949848046713,-9.94577088592052,-0.00204729847609997,-0.00288634118624032,0.00032983350683935,-1.97857656493451,0.0182664984484684,-3.11744679970131
1429448309.58143,-0.0687095206527738,0.194822881131899,-9.65918974027932,-0.00184420589357615,-0.000793506158515811,0.00208018277771771,-1.97853518614031,0.0182201852274642,-3.11743147948972
1429448309.58643,-0.136117585051851,0.145958111529425,-9.86319430952072,-0.000588346971198916,-6.08504633419216e-05,0.000955372292082757,-1.97855499288466,0.0182047096848892,-3.11744744328896
1429448309.59643,-0.106233455917053,0.158409067100566,-9.79868822734058,-0.00149955495726317,-0.00273303384892642,0.0010875005973503,-1.97854384122466,0.0182172175530785,-3.1174485938264
1429448309.61243,-0.184570933442377,0.171099493983388,-9.7965786878407,-0.00289146625436842,-0.00297401705756783,0.00045734949526377,-1.97857335780708,0.018247656425326,-3.11742916699904
1429448309.61643,-0.186969007560052,0.209110093953181,-9.91670495043397,-0.00194378348533064,-0.00348441652022302,0.000368219683878124,-1.97860168466692,0.0183015475927594,-3.11741904099505
1429448309.62643,-0.178346962627303,0.241347572147939,-9.72285527998209,-0.00196473556570709,-0.000825684692244977,0.00279768346808851,-1.9785981394359,0.0183066870001246,-3.11739586045754
1429448309.64143,-0.204844088805467,0.219033540340699,-9.95086324062347,-0.00157745275646448,-0.000762103241868317,0.00171837105881423,-1.97863825660892,0.0183224179934695,-3.1174102348214
1429448309.64643,-0.131475485733896,0.250186200707126,-9.70285294091701,-0.00377546576783061,-0.00124457245692611,0.00197416637092829,-1.97861308470555,0.0183045280668569,-3.11737838711633
1429448309.65643,-0.18331556308642,0.223834657012112,-9.87693174297213,-0.00254102284088731,-0.00254727178253233,0.00146516971290112,-1.9786389105074,0.0183292693661516,-3.11736389941007
1429448309.67143,-0.105264592618588,0.242443240163848,-9.73293302188218,-0.00228430842980742,-0.00125880585983396,0.00151985825505108,-1.97859790161071,0.0183093677352859,-3.11734047366532
1429448309.67643,-0.165275737999659,0.199289249423612,-9.76445745643675,0.000313371303491294,0.000386872736271471,-8.17517502582632e-07,-1.97861796595703,0.0183184106975943,-3.117344434847
1429448309.68643,-0.154648636854813,0.213754686622322,-9.85933763409257,-0.00012216717004776,-0.000942701124586165,0.000697653042152524,-1.97860742388676,0.0183130263262511,-3.11734158657757
1429448309.70143,-0.189909901583847,0.240761351491511,-9.71327671977579,-0.00168037984985858,-0.00249448558315635,0.00256120297126472,-1.97858923104404,0.0183381618346744,-3.11731249492732
1429448309.70643,-0.211769613752328,0.267185850824881,-9.95257939689159,-0.00170128338504583,-0.00204895855858922,0.00116834149230272,-1.97861508703365,0.0183832936014204,-3.1173066753833
1429448309.71643,-0.163085881538875,0.295475961367041,-9.66706266561151,-0.00237525440752506,0.000205476710107177,0.00194266869220883,-1.97861068831719,0.0183702506761882,-3.11727109332753
1429448309.73143,-0.192941999288741,0.242797953619342,-9.95172248780131,-0.00164210749790072,0.0013131391024217,0.00186440558172762,-1.97864100725922,0.0183638199878544,-3.11726953869341
1429448309.73643,0.0460902999204583,0.225266352049354,-9.64239993351996,-0.00173595850355923,0.00443804450333118,0.00192271615378559,-1.97853654453289,0.0182375223718109,-3.11727191586376
1429448309.74643,0.150077237286046,0.21186078090081,-9.76672657041252,-0.000801980786491185,0.00845121685415506,0.00171294808387756,-1.97840777220736,0.018017186853631,-3.11726854853777
1429448309.76143,0.418908973888122,0.204241592867672,-9.64546165917814,-0.0002069654292427,0.00869105104357004,0.00115193787496537,-1.97817488628375,0.0177079194956765,-3.11727975624799
1429448309.76643,0.202729051146563,0.203284894931037,-9.65502151468396,0.000560240761842579,-0.00478535331785679,0.00162651191931218,-1.97805357574543,0.0176478521702845,-3.11727370474584
1429448309.77643,0.0496324569061864,0.187798827714007,-9.81985668757558,0.00103262136690319,-0.0138000342994928,0.00124337070155889,-1.97799474197768,0.0177352770007867,-3.11731423485376
1429448309.79143,-0.356787010365538,0.24635506157903,-9.58492740323842,-0.00213457946665585,-0.0126714929938316,0.000345210486557335,-1.97811023959306,0.0179642398170716,-3.11727903041177
1429448309.79643,-0.331179252508841,0.258123514778726,-9.96265772331357,-0.000383458944270387,0.00469587370753288,0.00150075450073928,-1.97818403395989,0.017973172370342,-3.11728243197909
1429448309.80643,-0.287601319001801,0.211056570112146,-9.52136532391012,0.00139872916042805,0.0228078123182058,0.00302054802887142,-1.97822126045342,0.0177340091030423,-3.11731725140273
1429448309.82143,-0.0556347706274828,0.114899796649255,-9.92087142246366,0.00310285086743534,0.0194987505674362,1.92246898222947e-06,-1.97821350935756,0.0174726194765074,-3.11739781953508
1429448309.82643,0.0769680797351058,0.151076815383183,-9.56873263976276,-0.00240117637440562,0.00590104982256889,0.000751985469833016,-1.97812678062852,0.01734246223915,-3.11738155974091
1429448309.83643,0.102756537054107,0.138769149873406,-9.64507061403394,-0.00147652556188405,-0.00432162079960108,0.00126371171791106,-1.97801838692334,0.0172969706112434,-3.11737158342984
1429448309.85643,0.0638500157244736,0.175156496022921,-9.5394855024904,0.00129869545344263,0.0152796860784292,-0.000441723386757076,-1.97789354372374,0.0169301293292743,-3.11746922002552
1429448309.86643,0.193493367827497,0.202439237887133,-9.74958955765069,-0.000833766593132168,0.0118942596018314,-0.000102563200925943,-1.97779434562021,0.0166882827451751,-3.11747815759493
1429448309.88143,-0.0218285544118145,0.295853781703487,-9.69342109570503,0.000359040917828679,-0.000953773851506412,0.000618939870037138,-1.97775731721906,0.0166671170526929,-3.11748015504262
1429448309.88743,-0.147142517274711,0.2072668955056,-9.78148224099576,0.00224972772412002,-0.0129305673763156,0.00192761246580631,-1.97777178042954,0.0168301086363826,-3.11753399032716
1429448309.89643,-0.26180063238889,0.195715263394359,-9.81331822571754,-0.00075632706284523,-0.00256734294816852,0.00354243838228285,-1.97783309306863,0.0169214036846027,-3.11753502254581
1429448309.91143,-0.350905478046276,0.149557259399397,-9.63771499057412,-0.00220668036490679,0.0167741030454636,0.00201112194918096,-1.97791071997301,0.0167565616592257,-3.11752254145085
1429448309.91643,-0.178641159800906,0.185209560139477,-9.92820951026678,0.00214716955088079,0.015703022480011,0.00266290735453367,-1.97792508880194,0.0165992449628874,-3.11754077435748
1429448309.92643,-0.200107890596427,0.231290233715065,-9.59960883954167,0.000706510618329048,0.00533625902608037,0.00152302870992571,-1.97793268412502,0.0165502017750481,-3.11756066449098
1429448309.94143,-0.144773203460639,0.194091881709918,-9.9660280765295,-0.00269642984494567,-0.00662624649703503,0.000171721738297492,-1.97796175965949,0.0166424610523724,-3.11755531248991
1429448309.94643,-0.273589087196998,0.289370045707375,-9.79814696007073,-0.00135650881566107,-0.00262848194688559,0.00186887104064226,-1.97800590664007,0.0167297563577251,-3.11753007866786
1429448309.95743,-0.287125792178232,0.227411967509612,-9.90229414776564,0.000734787143301219,0.00821176171302795,0.00120478880126029,-1.97805876350144,0.0166710521763509,-3.11754699551605
1429448309.97743,-0.154237279574946,0.213707139419857,-9.79239526467621,-0.00143833353649825,0.0116695668548346,0.00318724079988897,-1.97804199673487,0.0163527373739091,-3.11756206148743
1429448309.98643,-0.0355929512186791,0.216451159164682,-10.1352039089739,0.00103001308161765,-0.00237324833869934,0.00123294012155384,-1.9780088511476,0.0163651416806434,-3.11758287002741
1429448310.00143,-0.113025856003538,0.226280278332252,-9.68777344520688,0.0008650929084979,-0.00247466308064759,0.000922328559681773,-1.97799261341266,0.0163859854331078,-3.11759705941146
1429448310.00643,-0.175884481503908,0.169624306864291,-10.1453839422047,-0.00156058836728334,0.00173297186847776,0.00192050507757813,-1.9780342530837,0.0163708976589917,-3.11761261328286
1429448310.01643,-0.143436566295708,0.225744746683445,-9.81044003993273,-0.000931483169551939,0.00915641710162163,0.00287789339199662,-1.97802535273406,0.0162555250237472,-3.11760503972573
1429448310.03143,-0.16866618415555,0.213371897849813,-10.0247760335743,0.000760121445637196,0.0062087457627058,0.000229004726861604,-1.9780462575925,0.0161795954290543,-3.11759995721134
1429448310.03643,-0.0650693877518643,0.2123916363745,-9.95016649053097,0.00119640456978232,-0.0021391271147877,0.000880217121448368,-1.97802601608569,0.0161981409353472,-3.11763530768108
1429448310.04643,-0.136865270747151,0.18854076865511,-9.99852515550852,-0.000953680370002985,-0.00300557212904096,0.000439289928181097,-1.97804121492767,0.0162203737428891,-3.11763801109675
1429448310.06143,-0.147953513997188,0.132477429318056,-10.1050624532104,-0.00126309285406023,-0.00293038855306804,0.000626686029136181,-1.97808109886556,0.0162548093826012,-3.11766095551074
1429448310.06643,-0.0820849569579586,0.192614740095753,-9.96238650515675,-0.000507841061335057,0.00494351098313928,0.00161381892394274,-1.97805041565915,0.0161540752614286,-3.11766831719214
1429448310.07643,-0.0141574558116379,0.160223039453663,-10.0976612370431,0.000802827649749815,0.00554942665621638,0.000808582582976669,-1.97802361840645,0.0160488482258011,-3.1177003008811
1429448310.09143,0.194847193589248,0.163533807969466,-10.0087765004098,-0.00142443913500756,0.005180723965168,-0.000608725531492382,-1.97790731613679,0.0158542032301804,-3.117724570865
1429448310.09643,0.199200237699598,0.102740608832613,-9.91813586001992,-0.00257841288112104,-0.00236808625049889,0.000100566881883424,-1.97779145918618,0.0157483240793773,-3.11771701884674
1429448310.11243,0.236580704806,0.129184388255188,-10.0741120191514,-0.0025422153994441,-0.00762764876708388,0.000165391465998255,-1.97767837753436,0.0157147591446229,-3.11772180984042
1429448310.12143,0.159199249363877,0.222004482442886,-9.79361340829432,-0.00167384161613882,-0.00426864624023438,-0.00144640856888145,-1.97758062261467,0.0156484320255192,-3.11769559998156
1429448310.12643,0.193962136116717,0.177775355018117,-10.1106329468191,-0.000453088665381074,-0.00238235713914037,-0.000810627650935203,-1.97751284669826,0.0155676431138281,-3.11773104298145
1429448310.13643,0.235439827675186,0.200794575952645,-9.72216554415226,-0.00136486953124404,0.0012831425992772,0.000450502237072214,-1.97736159647095,0.0153888683908043,-3.11773374297945
1429448310.15243,0.185201011506841,0.112207680621603,-10.0283965621591,-0.00156474870163947,-0.00380250834859908,-6.58841963740997e-05,-1.97728547858384,0.0153228445299221,-3.11774821823573
1429448310.15743,0.136791885850532,0.134994453640282,-9.83753146047592,-0.000669823552016169,-0.0111689371988177,-0.000436854577856138,-1.97721097248808,0.015353865008117,-3.11778267374924
1429448310.16643,0.0625348049400607,0.145378612874728,-9.84243910626173,-0.00362138892523944,-0.0108325053006411,0.000388007960282266,-1.97716140159885,0.0154047135388865,-3.11775285438628
1429448310.18143,0.108415339133935,0.155816493324097,-9.85239819021821,-0.00095047929789871,-0.00225397991016507,0.000404050486395136,-1.97708907051768,0.0153343062262973,-3.11777143667391
1429448310.18643,0.216412525921036,0.209979204937909,-9.63474561937451,0.000872097560204566,0.00581132527440786,0.00128771993331611,-1.97695196144803,0.0151238777503763,-3.11778477136138
1429448310.19643,0.203433600953035,0.192221192467213,-9.84303181145787,9.10870730876923e-05,-0.00132016208954155,0.000141034557600506,-1.9768627695117,0.0150214429010407,-3.11782430120518
1429448310.21143,0.216465881809778,0.212860642125737,-9.61561947862208,-0.00250032567419112,-0.0122907506301999,0.000995993963442743,-1.97672810586061,0.015024864860204,-3.1178275964328
1429448310.21643,0.106771115590865,0.142101892758999,-9.72941244654059,-0.00264583947136998,-0.0144818658009171,0.00157041684724391,-1.97666441149882,0.0151229037228478,-3.11781805053535
1429448310.22643,0.0484985529388534,0.151633736879891,-9.67371335567236,0.000287810427835211,-0.00211678328923881,0.00293361861258745,-1.97658574545932,0.015063018770904,-3.11785140537475
1429448310.24143,0.141372820432624,0.13542391283242,-9.65956558785438,-0.000481041788589209,0.00606087036430836,0.00254426640458405,-1.97649072879413,0.0148872375487705,-3.11786756677516
1429448310.24743,0.131581923516747,0.129305996207707,-9.71741630379856,-0.00162753532640636,0.00142361701000482,0.00158392684534192,-1.97641645976862,0.014765062292109,-3.11787324430371
1429448310.25643,0.19138205649564,0.190359873841051,-9.72402257019579,-0.00358994933776557,-0.0102296033874154,0.00244704727083445,-1.97628537386297,0.0147619149633233,-3.11784865057805
1429448310.27143,0.112292819888098,0.180226364899427,-9.59550023517907,-0.0031989817507565,-0.0113834301009774,0.00270798965357244,-1.97621157172086,0.0148176647314949,-3.11783522104208
1429448310.27643,0.153301076437067,0.210734809078183,-9.84256653203368,-0.00285592302680016,-0.00279376516118646,0.000759140239097178,-1.97610384659296,0.014733649738005,-3.11781738364353
1429448310.28643,0.193401890151761,0.191230062538013,-9.49342926923633,-0.000884326931554824,0.00600153068080544,0.00168446579482406,-1.97598969930839,0.0145355147543807,-3.11781713245311
1429448310.30743,0.267911936609726,0.212282696107309,-9.71820540834963,-0.00408599246293306,-0.00721286470070481,0.00208378653042018,-1.97568754882949,0.0142974169490301,-3.11778424664182
1429448310.31643,0.179573052089848,0.240111089155544,-9.67603040044308,-0.00445363484323025,-0.0109372539445758,0.00367614231072366,-1.97556982083824,0.0143145632336898,-3.11773206089932
1429448310.33243,0.207107357562333,0.229521324346401,-9.81465911893249,-0.00123165012337267,-0.00142179452814162,0.00327195296995342,-1.97542392444718,0.0141992760172489,-3.11772877288415
1429448310.33643,0.163571454832423,0.1835162915566,-9.86840824477673,-0.00127360422629863,0.00804346799850464,0.00329010374844074,-1.97532907271394,0.0140034889832496,-3.11772887716793
1429448310.34643,0.295953314821515,0.196940348209906,-9.61584685763717,-0.0031780288554728,0.00869366806000471,0.00207890965975821,-1.97515608464351,0.0137408042989825,-3.1177041825115
1429448310.36143,0.318723931289837,0.209767991606332,-10.00873324579,-0.00249194330535829,0.0009328150190413,0.0020018566865474,-1.97498462402982,0.0135689290929837,-3.11767325518644
1429448310.36743,0.226127827716898,0.184462321968749,-9.84710592902899,-0.00102761492598802,-0.0098869102075696,0.00325075513683259,-1.97486207458117,0.0135840949228972,-3.1176844226682
1429448310.37643,0.265685054340493,0.209370973379072,-9.70249930517375,-0.0020522081758827,-0.00182194961234927,0.00170293590053916,-1.97471866851534,0.0134752108979053,-3.11767362012669
1429448310.39143,0.403072704993933,0.226588522297516,-9.91483798751831,-0.004109937697649,0.0130305243656039,0.000475871609523892,-1.97452701536898,0.0131330479338895,-3.11762024036647
1429448310.39643,0.413164658082463,0.188754320074245,-9.90712814379334,0.00313761341385543,0.013565924949944,0.000764697964768857,-1.974359280097,0.0127946966255925,-3.11766151378255
1429448310.40643,0.623686098404601,0.169039547512587,-9.68251917794049,0.000500233669299632,0.00282655283808708,0.00220614927820861,-1.97405258074009,0.012507023195058,-3.11770292703481
1429448310.42143,0.641179669519141,0.177947734176647,-9.77715151831508,-0.00471998658031225,-0.00762223079800606,0.00074807700002566,-1.97379869570675,0.0123519737130305,-3.1176866702458
1429448310.42643,0.325295272504166,0.203234352053888,-10.0328856902719,-0.00245616491883993,-0.00981280952692032,0.00106264045462012,-1.97365681832774,0.0122940969829881,-3.1176778408544
1429448310.43643,0.313314473461732,0.162919859055895,-9.78478654323816,0.00202639191411436,-0.00890896283090115,0.000293639081064612,-1.97354964457929,0.0122841033914128,-3.11773315603393
1429448310.44943,0.237781714626215,0.182969361730944,-9.82423592557311,-0.000882934546098113,0.00934474170207977,0.000117856186989229,-1.97343214338895,0.0120291839869055,-3.11774791797927
1429448310.45743,0.445029467039928,0.16647028154647,-9.9191061663568,-0.00414356729015708,0.0156385358422995,3.77404321625363e-05,-1.97325192013758,0.0116485103430227,-3.1177226102635
1429448310.46643,0.262617593061272,0.187529143927153,-10.0066535169065,0.000497654138598591,-0.00300818774849176,0.000177545589394867,-1.97315854474858,0.0115713628551364,-3.11774724975832
1429448310.48143,0.509295602984354,0.0983252126763109,-9.67534534078836,0.000902744475752115,-0.012479261495173,0.00106417166534811,-1.97292552070922,0.0115114772925744,-3.11782931298606
